File: XRD/OER Sample 4 (Ti TiO2 Sb2S3 MoO3 Ni)_25112020_bg_subtracted.xy
'Id: "Commander Sample ID" Comment: "" Operator: "Lab Manager" Anode: "Cu" Scantype: "Coupled TwoTheta/Theta" TimePerStep: "38.4"
10.0001 -0.620645
10.0614 -0.594982
10.1227 0.31121
10.184 -0.239735
10.2453 -0.529067
10.3066 -0.00991097
10.3679 -0.583309
10.4292 -0.686761
10.4905 -0.167582
10.5518 0.13733
10.6131 -0.233646
10.6744 -0.0565499
10.7357 0.0696586
10.797 -0.453978
10.8583 -0.742044
10.9196 0.162685
10.9809 -0.493889
11.0422 0.699692
11.1035 -0.00657343
11.1648 1.94461
11.2261 1.37094
11.2874 -0.191108
11.3487 0.435536
11.41 0.33421
11.4713 1.90075
11.5325 1.33306
11.5938 1.44366
11.6551 -0.18934
11.7164 1.0174
11.7777 1.26179
11.839 1.81988
11.9003 0.764582
11.9616 1.74173
12.0229 2.4857
12.0842 2.99649
12.1455 1.24285
12.2068 2.22478
12.2681 2.79125
12.3294 1.30161
12.3907 2.3913
12.452 2.64885
12.5133 4.20968
12.5746 3.03733
12.6359 2.72555
12.6972 3.06602
12.7585 2.75663
12.8198 3.51615
12.8811 3.41749
12.9424 2.77315
13.0037 3.01543
13.065 4.1964
13.1263 4.36294
13.1876 4.55672
13.2489 5.09024
13.3102 5.13016
13.3715 4.98898
13.4328 5.63026
13.4941 5.69981
13.5554 7.0466
13.6167 6.155
13.678 4.90002
13.7393 5.88581
13.8006 7.9926
13.8619 6.40266
13.9232 6.01184
13.9845 6.61179
14.0458 6.90044
14.1071 5.99237
14.1684 8.34071
14.2297 5.6642
14.291 5.95763
14.3523 7.0856
14.4135 5.53247
14.4748 6.94928
14.5361 7.14334
14.5974 6.71359
14.6587 5.92045
14.72 5.12851
14.7813 5.71797
14.8426 5.76176
14.9039 5.98903
14.9652 4.75917
15.0265 4.62425
15.0878 5.74052
15.1491 5.55592
15.2104 4.87771
15.2717 4.95591
15.333 4.80093
15.3943 4.88152
15.4556 6.00498
15.5169 4.52546
15.5782 5.13048
15.6395 6.15335
15.7008 7.30763
15.7621 8.20269
15.8234 6.33853
15.8847 4.08495
15.946 2.74401
16.0073 4.32094
16.0686 3.58136
16.1299 4.06693
16.1912 3.95474
16.2525 2.82812
16.3138 2.84853
16.3751 2.42742
16.4364 2.47627
16.4977 2.44818
16.559 1.79629
16.6203 2.34352
16.6816 2.03256
16.7429 0.264469
16.8042 2.22153
16.8655 1.23708
16.9268 2.31112
16.9881 2.86552
17.0494 2.8482
17.1107 2.88416
17.172 2.0359
17.2333 1.00654
17.2946 1.38463
17.3558 2.15454
17.4171 2.11836
17.4784 2.10941
17.5397 3.82041
17.601 6.20969
17.6623 6.10017
17.7236 3.4658
17.7849 1.30137
17.8462 1.95064
17.9075 0.804238
17.9688 0.778819
18.0301 0.077513
18.0914 0.809695
18.1527 1.85557
18.214 0.220355
18.2753 -0.085541
18.3366 1.22434
18.3979 0.764588
18.4592 0.358114
18.5205 0.708044
18.5818 -0.194618
18.6431 -0.0359501
18.7044 0.85308
18.7657 0.597474
18.827 -0.854854
18.8883 0.506515
18.9496 0.853455
19.0109 0.602633
19.0722 0.405091
19.1335 0.885828
19.1948 0.534428
19.2561 0.652974
19.3174 0.147716
19.3787 -0.434471
19.44 -0.598795
19.5013 -0.120486
19.5626 1.29652
19.6239 -0.175906
19.6852 0.0195329
19.7465 0.476584
19.8078 0.101499
19.8691 0.170318
19.9304 0.40885
19.9917 0.563566
20.053 0.667395
20.1143 0.407837
20.1756 0.175517
20.2369 -0.237898
20.2981 -0.0511595
20.3594 -0.0715577
20.4207 -0.481385
20.482 0.412067
20.5433 0.186924
20.6046 0.926519
20.6659 0.807935
20.7272 0.378047
20.7885 0.574355
20.8498 -0.0614736
20.9111 0.0070187
20.9724 -0.00141788
21.0337 0.0434251
21.095 -0.144911
21.1563 0.00649111
21.2176 0.341381
21.2789 0.703508
21.3402 -0.0269177
21.4015 1.04073
21.4628 -0.650848
21.5241 0.0513801
21.5854 -0.0264454
21.6467 1.53755
21.708 0.967325
21.7693 0.684755
21.8306 0.611714
21.8919 -0.293463
21.9532 0.417138
22.0145 -0.251273
22.0758 0.513805
22.1371 -0.334505
22.1984 0.979839
22.2597 0.368297
22.321 1.21628
22.3823 2.35193
22.4436 1.17105
22.5049 0.77263
22.5662 -0.301682
22.6275 -0.366921
22.6888 0.398495
22.7501 -0.501559
22.8114 -0.228542
22.8727 -0.110579
22.934 -0.199753
22.9953 -0.235648
23.0566 -0.296388
23.1179 -0.0173903
23.1792 0.132595
23.2404 0.387944
23.3017 0.331988
23.363 -0.331073
23.4243 0.602957
23.4856 -0.206608
23.5469 -0.259769
23.6082 0.2091
23.6695 0.731248
23.7308 0.186884
23.7921 -0.0698255
23.8534 0.42987
23.9147 -0.501531
23.976 0.000556631
24.0373 0.0231803
24.0986 0.231514
24.1599 0.3867
24.2212 0.437787
24.2825 0.411945
24.3438 -0.0293682
24.4051 -0.0302987
24.4664 0.173847
24.5277 0.821898
24.589 0.403437
24.6503 -0.0919535
24.7116 0.507602
24.7729 -0.532271
24.8342 1.26759
24.8955 1.71449
24.9568 4.68862
25.0181 5.11187
25.0794 3.8436
25.1407 3.90465
25.202 2.0919
25.2633 1.92097
25.3246 0.839784
25.3859 0.488956
25.4472 0.113283
25.5085 -0.052861
25.5698 -0.452184
25.6311 -0.407602
25.6924 0.393384
25.7537 0.961192
25.815 0.149987
25.8763 1.08477
25.9376 0.562416
25.9989 0.145425
26.0602 -0.0359947
26.1215 0.0441981
26.1827 0.64642
26.244 0.807131
26.3053 0.0054954
26.3666 -0.378277
26.4279 -0.0425242
26.4892 0.945467
26.5505 0.0856952
26.6118 -0.121838
26.6731 0.601163
26.7344 0.618155
26.7957 0.141551
26.857 -0.203648
26.9183 0.207557
26.9796 -0.213375
27.0409 0.0960563
27.1022 0.19835
27.1635 -0.0367015
27.2248 0.224235
27.2861 -0.00842461
27.3474 0.671571
27.4087 0.0506786
27.47 0.394524
27.5313 0.453108
27.5926 -0.138154
27.6539 0.678031
27.7152 0.453745
27.7765 0.438988
27.8378 0.112928
27.8991 0.595355
27.9604 0.688354
28.0217 0.131507
28.083 -0.267894
28.1443 -0.22339
28.2056 -0.412065
28.2669 0.468164
28.3282 0.177715
28.3895 0.539503
28.4508 0.407696
28.5121 0.797919
28.5734 2.25705
28.6347 2.46737
28.696 1.63722
28.7573 0.80827
28.8186 0.68364
28.8799 0.0133313
28.9412 -0.291198
29.0025 -0.360156
29.0638 0.0147902
29.125 0.338849
29.1863 -0.455687
29.2476 1.74576
29.3089 2.72445
29.3702 1.72517
29.4315 0.883338
29.4928 0.849991
29.5541 0.791798
29.6154 0.187927
29.6767 -0.102249
29.738 0.572314
29.7993 -0.444636
29.8606 -0.00205571
29.9219 0.91047
29.9832 0.261693
30.0445 0.629736
30.1058 0.582309
30.1671 0.588161
30.2284 -0.00374831
30.2897 0.36908
30.351 -0.558979
30.4123 -0.2098
30.4736 0.583283
30.5349 0.544229
30.5962 -0.0665454
30.6575 -0.285499
30.7188 0.0151496
30.7801 0.641301
30.8414 0.930106
30.9027 0.0742746
30.964 0.209222
31.0253 0.345367
31.0866 0.196248
31.1479 0.10041
31.2092 -0.0202742
31.2705 -0.243929
31.3318 -0.388262
31.3931 0.197767
31.4544 0.42041
31.5157 0.279665
31.577 0.817199
31.6383 0.41843
31.6996 1.16669
31.7609 1.49948
31.8222 0.0886745
31.8835 -0.070935
31.9448 -0.203307
32.0061 -0.313741
32.0673 0.48583
32.1286 0.192846
32.1899 -0.281232
32.2512 0.391718
32.3125 0.36274
32.3738 1.40267
32.4351 1.45421
32.4964 1.35069
32.5577 0.961914
32.619 0.600375
32.6803 0.500449
32.7416 0.636094
32.8029 -0.112481
32.8642 0.0776397
32.9255 0.607498
32.9868 0.695845
33.0481 0.498929
33.1094 0.511543
33.1707 0.543278
33.232 -0.299398
33.2933 0.655997
33.3546 0.07613
33.4159 0.591209
33.4772 0.716859
33.5385 0.765581
33.5998 1.02383
33.6611 0.658279
33.7224 0.398089
33.7837 -0.225488
33.845 0.610464
33.9063 -0.0628039
33.9676 0.0463741
34.0289 0.208832
34.0902 0.112069
34.1515 0.224835
34.2128 -0.364327
34.2741 -0.325483
34.3354 -0.0510685
34.3967 0.276626
34.458 0.110725
34.5193 -0.262313
34.5806 0.928344
34.6419 -0.0673015
34.7032 -0.25446
34.7645 -0.1224
34.8258 0.417263
34.8871 0.124788
34.9484 0.30226
35.0096 -0.118031
35.0709 1.15558
35.1322 1.67519
35.1935 1.25848
35.2548 0.686727
35.3161 0.272418
35.3774 0.223888
35.4387 0.0984286
35.5 0.338749
35.5613 1.75214
35.6226 1.76048
35.6839 2.31689
35.7452 1.02553
35.8065 0.594753
35.8678 0.399542
35.9291 0.804486
35.9904 0.247084
36.0517 0.888795
36.113 1.45358
36.1743 0.222681
36.2356 0.503397
36.2969 0.186351
36.3582 0.104876
36.4195 0.0506393
36.4808 0.205932
36.5421 -0.314663
36.6034 0.911502
36.6647 -0.0486379
36.726 0.0601271
36.7873 -0.246578
36.8486 -0.109379
36.9099 -0.413693
36.9712 0.53319
37.0325 0.413561
37.0938 0.503462
37.1551 0.229975
37.2164 0.452476
37.2777 -0.0269521
37.339 0.510441
37.4003 -0.409303
37.4616 -0.338267
37.5229 0.238233
37.5842 -0.173655
37.6455 0.483362
37.7068 0.724908
37.7681 1.4364
37.8294 1.6543
37.8907 1.92547
37.9519 2.56243
38.0132 2.41933
38.0745 3.99618
38.1358 6.72006
38.1971 9.00242
38.2584 17.6402
38.3197 35.3155
38.381 59.815
38.4423 84.7324
38.5036 39.078
38.5649 16.6019
38.6262 3.42393
38.6875 1.31483
38.7488 1.42046
38.8101 0.511661
38.8714 0.671768
38.9327 0.572654
38.994 0.969528
39.0553 0.0655156
39.1166 0.0361812
39.1779 0.0932218
39.2392 1.08896
39.3005 0.00255822
39.3618 0.688187
39.4231 1.37501
39.4844 0.240117
39.5457 0.304335
39.607 0.604124
39.6683 0.61865
39.7296 0.478123
39.7909 1.64088
39.8522 0.981907
39.9135 1.6783
39.9748 2.06339
40.0361 3.98614
40.0974 6.50904
40.1587 22.679
40.22 21.9751
40.2813 18.7985
40.3426 5.20635
40.4039 1.4071
40.4652 1.48927
40.5265 1.10387
40.5878 -0.00949267
40.6491 0.883548
40.7104 0.0590343
40.7717 0.407592
40.833 0.522971
40.8942 -0.167746
40.9555 -0.258308
41.0168 -0.269549
41.0781 0.345407
41.1394 -0.0801086
41.2007 0.068489
41.262 0.296408
41.3233 0.265106
41.3846 0.495417
41.4459 0.0758827
41.5072 0.100253
41.5685 0.334152
41.6298 0.0874814
41.6911 0.310764
41.7524 0.79566
41.8137 0.135918
41.875 0.414873
41.9363 0.122107
41.9976 0.611787
42.0589 -0.173378
42.1202 0.787445
42.1815 -0.255745
42.2428 0.0564284
42.3041 -0.177077
42.3654 -0.279178
42.4267 0.297
42.488 0.249375
42.5493 0.489404
42.6106 -0.83187
42.6719 0.139718
42.7332 0.122919
42.7945 -0.517684
42.8558 0.171034
42.9171 -0.102593
42.9784 0.0416428
43.0397 -0.0473003
43.101 0.646203
43.1623 0.090902
43.2236 0.526381
43.2849 0.312014
43.3462 1.06238
43.4075 0.824369
43.4688 0.249007
43.5301 0.351925
43.5914 -0.273127
43.6527 -0.0208428
43.714 -0.392362
43.7753 0.487315
43.8365 -0.142229
43.8978 0.0887985
43.9591 -0.121686
44.0204 0.241942
44.0817 0.0859331
44.143 0.0352869
44.2043 0.402504
44.2656 0.276125
44.3269 0.437401
44.3882 -0.0251276
44.4495 0.424999
44.5108 -0.044704
44.5721 -0.271928
44.6334 0.0749608
44.6947 -0.123829
44.756 -0.008923
44.8173 0.237388
44.8786 -0.00989714
44.9399 0.186723
45.0012 0.150163
45.0625 -0.249783
45.1238 0.510336
45.1851 0.568526
45.2464 0.497704
45.3077 0.0634942
45.369 -0.187227
45.4303 -0.098211
45.4916 0.74721
45.5529 0.317785
45.6142 -0.136485
45.6755 -0.0166424
45.7368 0.0262714
45.7981 0.226631
45.8594 -0.118687
45.9207 0.63094
45.982 0.105722
46.0433 0.0764914
46.1046 0.491166
46.1659 0.0216193
46.2272 0.178269
46.2885 0.336115
46.3498 -0.286093
46.4111 0.637826
46.4724 -0.103727
46.5337 0.327792
46.595 0.578216
46.6563 0.0225438
46.7176 0.0149429
46.7788 0.763747
46.8401 1.40958
46.9014 1.27536
46.9627 1.22046
47.024 0.776131
47.0853 0.202791
47.1466 0.802521
47.2079 0.283656
47.2692 0.729529
47.3305 0.369307
47.3918 0.166531
47.4531 0.0951589
47.5144 -0.365642
47.5757 0.138295
47.637 0.461137
47.6983 -0.23045
47.7596 -0.113549
47.8209 -0.151702
47.8822 -0.370951
47.9435 -0.281879
48.0048 0.110136
48.0661 0.06064
48.1274 0.116506
48.1887 0.381902
48.25 0.101619
48.3113 0.030866
48.3726 -0.299108
48.4339 -0.291314
48.4952 0.0301757
48.5565 0.404945
48.6178 0.0777855
48.6791 -0.0658861
48.7404 -0.104195
48.8017 0.0930674
48.863 -0.307432
48.9243 0.0484723
48.9856 0.145157
49.0469 0.13887
49.1082 -0.0224698
49.1695 0.442386
49.2308 0.127188
49.2921 0.307979
49.3534 -0.21316
49.4147 -0.294969
49.476 0.145251
49.5373 -0.0904158
49.5986 0.039697
49.6599 -0.0894108
49.7211 0.121219
49.7824 0.0465871
49.8437 -0.391432
49.905 -0.0470052
49.9663 -0.14409
50.0276 0.0464788
50.0889 -0.0221724
50.1502 0.587456
50.2115 0.10453
50.2728 -0.429282
50.3341 0.150089
50.3954 0.444199
50.4567 0.479088
50.518 0.0724643
50.5793 -0.0204627
50.6406 0.304473
50.7019 0.370188
50.7632 -0.0316502
50.8245 -0.26086
50.8858 0.010242
50.9471 0.230457
51.0084 0.035201
51.0697 0.309891
51.131 -0.117347
51.1923 -0.126723
51.2536 0.438015
51.3149 0.170615
51.3762 -0.251839
51.4375 -0.0741382
51.4988 0.156842
51.5601 0.180685
51.6214 -0.1849
51.6827 -0.08054
51.744 -0.11228
51.8053 0.129458
51.8666 0.138017
51.9279 -0.0605608
51.9892 -0.466276
52.0505 0.30108
52.1118 -0.284534
52.1731 0.719589
52.2344 0.0582418
52.2957 0.153299
52.357 0.509969
52.4183 0.399086
52.4796 0.732107
52.5409 0.415282
52.6022 0.438195
52.6634 1.60814
52.7247 1.81574
52.786 2.83182
52.8473 4.36993
52.9086 9.68529
52.9699 26.0435
53.0312 34.0956
53.0925 12.5396
53.1538 21.4534
53.2151 5.05603
53.2764 1.15981
53.3377 0.936664
53.399 0.298044
53.4603 -0.0529213
53.5216 -0.220399
53.5829 0.0299865
53.6442 0.255526
53.7055 0.221846
53.7668 0.10294
53.8281 -0.0834457
53.8894 -0.00821847
53.9507 -0.192212
54.012 0.3802
54.0733 0.146515
54.1346 0.174444
54.1959 0.359819
54.2572 0.39014
54.3185 0.734157
54.3798 0.740829
54.4411 0.64453
54.5024 0.497344
54.5637 0.403437
54.625 0.336769
54.6863 0.479629
54.7476 0.180978
54.8089 0.14394
54.8702 -0.178361
54.9315 0.0213679
54.9928 0.0400013
55.0541 0.372331
55.1154 -0.0233101
55.1767 0.269156
55.238 -0.0182052
55.2993 0.32063
55.3606 -0.146631
55.4219 -0.169987
55.4832 0.458895
55.5445 -0.134986
55.6057 0.105664
55.667 0.00896715
55.7283 0.117548
55.7896 0.407491
55.8509 0.438213
55.9122 0.0274232
55.9735 0.268871
56.0348 0.0948485
56.0961 0.0782721
56.1574 -0.0412748
56.2187 0.152874
56.28 0.0617616
56.3413 0.0499698
56.4026 0.117499
56.4639 0.224688
56.5252 0.143971
56.5865 0.246743
56.6478 -0.0138735
56.7091 0.117332
56.7704 0.093483
56.8317 -0.189586
56.893 0.359835
56.9543 -0.105172
57.0156 0.186225
57.0769 0.19236
57.1382 0.434066
57.1995 -0.0782397
57.2608 0.00960882
57.3221 0.411153
57.3834 0.293061
57.4447 0.0199147
57.506 -0.0176604
57.5673 -0.214735
57.6286 0.212164
57.6899 -0.140991
57.7512 0.0799663
57.8125 -0.244755
57.8738 0.21297
57.9351 0.0729332
57.9964 0.518786
58.0577 0.177453
58.119 -0.136642
58.1803 0.0973344
58.2416 -0.00603501
58.3029 0.0480418
58.3642 0.389773
58.4255 0.185825
58.4868 0.0611991
58.548 0.139026
58.6093 -0.186729
58.6706 0.322045
58.7319 0.259099
58.7932 -0.0109846
58.8545 0.136795
58.9158 -0.287146
58.9771 0.0192757
59.0384 -0.141856
59.0997 0.219041
59.161 0.372802
59.2223 -0.253492
59.2836 0.189119
59.3449 0.0339681
59.4062 0.29668
59.4675 0.143921
59.5288 0.435067
59.5901 -0.158008
59.6514 -0.0606121
59.7127 0.0310548
59.774 -0.188582
59.8353 0.191935
59.8966 0.130941
59.9579 0.0451008
60.0192 0.194832
60.0805 -0.0969492
60.1418 0.185383
60.2031 0.00016049
60.2644 0.36301
60.3257 -0.236487
60.387 -0.00145368
60.4483 0.130609
60.5096 -0.152799
60.5709 0.0858227
60.6322 -0.0129012
60.6935 0.228113
60.7548 0.314073
60.8161 0.0106043
60.8774 0.30729
60.9387 0.00621377
61 0.0448753
61.0613 0.00183936
61.1226 0.0806708
61.1839 0.34299
61.2452 0.294005
61.3065 0.14205
61.3678 0.0694164
61.429 -0.0541046
61.4903 0.000428959
61.5516 0.131567
61.6129 0.185776
61.6742 -0.40986
61.7355 0.115492
61.7968 0.511832
61.8581 0.0499923
61.9194 0.146455
61.9807 0.0539168
62.042 0.0146581
62.1033 0.184929
62.1646 -0.0602707
62.2259 0.190517
62.2872 0.0258351
62.3485 0.331099
62.4098 -0.065566
62.4711 0.0337568
62.5324 -0.0219741
62.5937 0.183908
62.655 0.443069
62.7163 0.44301
62.7776 0.131647
62.8389 0.680855
62.9002 2.5073
62.9615 7.04328
63.0228 2.80441
63.0841 1.61361
63.1454 4.22609
63.2067 1.31893
63.268 0.574431
63.3293 0.404041
63.3906 -0.20786
63.4519 0.331628
63.5132 0.299395
63.5745 0.112108
63.6358 0.0822674
63.6971 0.209873
63.7584 -0.000129092
63.8197 0.207207
63.881 -0.131135
63.9423 -0.233906
64.0036 0.184305
64.0649 -0.0212884
64.1262 -0.017352
64.1875 -0.0903444
64.2488 -0.0840157
64.3101 -0.0504491
64.3713 -0.197978
64.4326 0.0723559
64.4939 -0.0727806
64.5552 0.017654
64.6165 0.0240222
64.6778 -0.112897
64.7391 0.115964
64.8004 0.00747877
64.8617 0.36894
64.923 -0.0496527
64.9843 0.835034
65.0456 0.184459
65.1069 -0.126379
65.1682 0.34523
65.2295 0.0628268
65.2908 0.328495
65.3521 0.126608
65.4134 -0.0219982
65.4747 -0.19545
65.536 0.101044
65.5973 -0.00511981
65.6586 -0.194827
65.7199 -0.0984352
65.7812 0.519986
65.8425 -0.0322719
65.9038 -0.192709
65.9651 0.0647177
66.0264 0.375423
66.0877 -0.067883
66.149 0.505632
66.2103 -0.0654906
66.2716 0.692708
66.3329 -0.0583136
66.3942 0.103319
66.4555 -0.0463519
66.5168 -0.220868
66.5781 0.316389
66.6394 -0.134741
66.7007 0.0924087
66.762 0.112421
66.8233 -0.126787
66.8846 -0.0262568
66.9459 0.0494275
67.0072 0.438808
67.0685 0.0220931
67.1298 -0.00280066
67.1911 0.155793
67.2524 0.185375
67.3136 0.268237
67.3749 0.0397943
67.4362 -0.00516032
67.4975 0.23754
67.5588 0.168936
67.6201 -0.0547221
67.6814 0.113441
67.7427 -0.241988
67.804 0.0268004
67.8653 0.505119
67.9266 0.437758
67.9879 -0.201323
68.0492 0.202458
68.1105 -0.0436054
68.1718 0.306026
68.2331 0.172853
68.2944 -0.0893327
68.3557 0.248636
68.417 0.197177
68.4783 0.355247
68.5396 0.0718044
68.6009 0.258308
68.6622 0.211633
68.7235 0.140113
68.7848 -0.0343781
68.8461 0.104827
68.9074 0.349395
68.9687 0.0222427
69.03 -0.173505
69.0913 0.022568
69.1526 0.214186
69.2139 -0.224525
69.2752 -0.50579
69.3365 0.4381
69.3978 0.0550604
69.4591 -0.066366
69.5204 0.360279
69.5817 0.63187
69.643 0.566115
69.7043 0.579682
69.7656 0.594445
69.8269 0.662487
69.8882 0.679642
69.9495 0.697993
70.0108 1.05608
70.0721 1.10287
70.1334 1.43731
70.1947 2.47607
70.2559 3.48998
70.3172 5.41655
70.3785 6.7714
70.4398 10.7316
70.5011 19.068
70.5624 33.291
70.6237 80.1455
70.685 51.5584
70.7463 23.0767
70.8076 31.5753
70.8689 36.8981
70.9302 8.472
70.9915 3.04194
71.0528 0.998487
71.1141 0.727066
71.1754 0.196424
71.2367 0.239895
71.298 -0.132105
71.3593 0.434592
71.4206 -0.221474
71.4819 0.451782
71.5432 0.00644215
71.6045 0.135215
71.6658 -0.13871
71.7271 0.180886
71.7884 0.319385
71.8497 -0.218002
71.911 -0.0771097
71.9723 0.195187
72.0336 -0.286528
72.0949 0.508994
72.1562 0.159879
72.2175 0.0984188
72.2788 0.298571
72.3401 0.0832533
72.4014 0.181632
72.4627 0.113636
72.524 0.518987
72.5853 0.0661591
72.6466 0.187444
72.7079 -0.210908
72.7692 0.38152
72.8305 0.0897269
72.8918 0.137672
72.9531 0.44723
73.0144 0.185067
73.0757 0.184517
73.137 0.315371
73.1982 -0.229661
73.2595 -0.278706
73.3208 0.272404
73.3821 0.121585
73.4434 0.10217
73.5047 -0.30912
73.566 0.399353
73.6273 0.0673564
73.6886 -0.0811526
73.7499 -0.020132
73.8112 0.27646
73.8725 0.105497
73.9338 -0.272602
73.9951 -0.232838
74.0564 -0.0877119
74.1177 0.188819
74.179 0.232171
74.2403 -0.00973905
74.3016 0.0880887
74.3629 0.213154
74.4242 0.261291
74.4855 0.336666
74.5468 0.048653
74.6081 -0.0924062
74.6694 0.345704
74.7307 0.0558431
74.792 -0.024488
74.8533 0.000543697
74.9146 0.151331
74.9759 -0.0204817
75.0372 -0.0608903
75.0985 0.316564
75.1598 0.226464
75.2211 0.345894
75.2824 -0.0803548
75.3437 0.432092
75.405 0.164486
75.4663 0.106409
75.5276 -0.218912
75.5889 -0.000174488
75.6502 0.245801
75.7115 -0.105985
75.7728 0.298633
75.8341 0.235698
75.8954 -0.0343752
75.9567 0.19154
76.018 0.574901
76.0793 1.32404
76.1405 3.35042
76.2018 8.06029
76.2631 2.97968
76.3244 1.54611
76.3857 2.7179
76.447 4.30755
76.5083 1.05464
76.5696 0.719605
76.6309 0.203469
76.6922 0.0531133
76.7535 0.372704
76.8148 0.0424104
76.8761 0.0778208
76.9374 0.114427
76.9987 -0.0300615
77.06 0.0349791
77.1213 0.482435
77.1826 0.040967
77.2439 0.30382
77.3052 0.593912
77.3665 0.624782
77.4278 0.422474
77.4891 0.325529
77.5504 0.672488
77.6117 0.18731
77.673 0.0158283
77.7343 -0.310707
77.7956 0.145203
77.8569 0.0290963
77.9182 0.27862
77.9795 0.034549
78.0408 0.234382
78.1021 0.357286
78.1634 0.194928
78.2247 0.206224
78.286 -0.139495
78.3473 0.531607
78.4086 -0.0981787
78.4699 0.0284406
78.5312 0.0260477
78.5925 -0.105357
78.6538 0.0248505
78.7151 -0.0260372
78.7764 -0.0236453
78.8377 0.292443
78.899 -0.0152732
78.9603 -0.00929284
79.0216 0.2583
79.0828 0.136465
79.1441 -0.244591
79.2054 0.234924
79.2667 -0.0656152
79.328 0.0256671
79.3893 0.482729
79.4506 0.133695
79.5119 0.205979
79.5732 0.0337898
79.6345 0.175297
79.6958 -0.0726247
79.7571 -0.137059
79.8184 0.0601204
79.8797 0.206412
79.941 0.3539
80.0023 0.164043
80.0636 -0.20691
80.1249 0.204583
80.1862 0.304772
80.2475 0.1197
80.3088 0.326448
80.3701 -0.220816
80.4314 -0.0442471
80.4927 0.133518
80.554 0.104146
80.6153 -0.158405
80.6766 -0.115599
80.7379 -0.227847
80.7992 0.234019
80.8605 -0.0363215
80.9218 0.128773
80.9831 -0.06952
81.0444 0.488592
81.1057 0.136441
81.167 -0.136388
81.2283 -0.38198
81.2896 -0.157625
81.3509 0.198134
81.4122 0.0602981
81.4735 0.314283
81.5348 0.283006
81.5961 0.33105
81.6574 -0.140544
81.7187 0.222393
81.78 0.0656916
81.8413 0.300812
81.9026 0.198587
81.9639 0.618391
82.0251 0.778975
82.0864 1.04492
82.1477 1.62456
82.209 2.77832
82.2703 4.19369
82.3316 1.83421
82.3929 1.87176
82.4542 2.17093
82.5155 2.21087
82.5768 0.507223
82.6381 0.211018
82.6994 0.332677
82.7607 0.42949
82.822 0.0587487
82.8833 0.459291
82.9446 0.204406
83.0059 0.367384
83.0672 0.271142
83.1285 0.202137
83.1898 -0.103386
83.2511 0.0543581
83.3124 0.23934
83.3737 -0.0953157
83.435 -0.220442
83.4963 0.384795
83.5576 -0.0243968
83.6189 0.240909
83.6802 0.166979
83.7415 0.432787
83.8028 -0.00333354
83.8641 0.1607
83.9254 -0.14282
83.9867 -0.132644
84.048 -0.147314
84.1093 0.0734064
84.1706 0.71199
84.2319 0.0496857
84.2932 0.0396196
84.3545 -0.0213337
84.4158 -0.0810908
84.4771 -0.217777
84.5384 0.0373584
84.5997 -0.0188102
84.661 0.134551
84.7223 0.0807745
84.7836 0.078966
84.8449 -0.0284366
84.9062 0.177857
84.9674 0.203055
85.0287 0.541949
85.09 -0.107544
85.1513 -0.000631996
85.2126 0.287273
85.2739 0.0282516
85.3352 0.239177
85.3965 0.00858933
85.4578 -0.168718
85.5191 0.117952
85.5804 -0.141055
85.6417 0.121966
85.703 -0.0825661
85.7643 -0.155694
85.8256 0.309571
85.8869 0.0208228
85.9482 -0.00631205
86.0095 0.176083
86.0708 0.177382
86.1321 -0.210748
86.1934 0.157527
86.2547 -0.151341
86.316 0.0853528
86.3773 0.323242
86.4386 0.301912
86.4999 0.255735
86.5612 0.262838
86.6225 0.140929
86.6838 0.280633
86.7451 0.655908
86.8064 0.355296
86.8677 0.316297
86.929 0.486827
86.9903 0.346053
87.0516 0.258559
87.1129 -0.140239
87.1742 0.274808
87.2355 0.482717
87.2968 0.379323
87.3581 0.407333
87.4194 0.228206
87.4807 0.206525
87.542 0.420415
87.6033 0.635501
87.6646 -0.1378
87.7259 0.392543
87.7872 0.377208
87.8485 0.128693
87.9097 0.324083
87.971 -0.0782897
88.0323 0.119492
88.0936 0.448679
88.1549 -0.0282298
88.2162 0.147099
88.2775 0.0892494
88.3388 0.371137
88.4001 -0.0489035
88.4614 0.13121
88.5227 0.442728
88.584 0.156484
88.6453 -0.00348195
88.7066 -0.0866906
88.7679 -0.350995
88.8292 0.159272
88.8905 0.0196941
88.9518 0.16777
89.0131 -0.0996239
89.0744 0.0768863
89.1357 0.124384
89.197 -0.165463
89.2583 -0.0634893
89.3196 0.274056
89.3809 0.19613
89.4422 -0.114974
89.5035 0.174076
89.5648 0.151822
89.6261 -0.181736
89.6874 0.331496
89.7487 -0.14366
89.81 0.293838
89.8713 0.2117
89.9326 -0.364035
89.9939 -0.170767