File: XRD/OER Sample 3(2) (Ti TiO2 Sb2S3 Ni)_25112020_bg_subtracted.xy
'Id: "Commander Sample ID" Comment: "" Operator: "Lab Manager" Anode: "Cu" Scantype: "Coupled TwoTheta/Theta" TimePerStep: "38.4"
10.0001 -0.610176
10.0614 -0.859229
10.1227 -0.0643203
10.184 -0.204751
10.2453 -0.63031
10.3066 -0.89829
10.3679 -0.183541
10.4292 -0.483088
10.4905 0.937444
10.5518 0.848889
10.6131 0.00645483
10.6744 0.154933
10.7357 0.30474
10.797 -0.924331
10.8583 0.10824
10.9196 1.01193
10.9809 0.640912
11.0422 0.114971
11.1035 0.710151
11.1648 0.99416
11.2261 0.706581
11.2874 1.21466
11.3487 -0.0532577
11.41 1.41453
11.4713 -0.189264
11.5325 0.656185
11.5938 0.148796
11.6551 0.31982
11.7164 0.830715
11.7777 0.926273
11.839 0.502326
11.9003 -0.701542
11.9616 0.205295
12.0229 1.81659
12.0842 1.03337
12.1455 1.1369
12.2068 0.616766
12.2681 2.41566
12.3294 2.28881
12.3907 1.4862
12.452 2.24742
12.5133 1.52559
12.5746 2.0551
12.6359 1.41405
12.6972 3.35247
12.7585 0.969291
12.8198 1.03536
12.8811 2.24859
12.9424 1.90065
13.0037 3.63738
13.065 1.93793
13.1263 2.19294
13.1876 1.79823
13.2489 1.95173
13.3102 3.33052
13.3715 2.99189
13.4328 2.36812
13.4941 2.68319
13.5554 3.18188
13.6167 1.6246
13.678 2.95928
13.7393 3.12341
13.8006 4.46075
13.8619 2.51816
13.9232 2.50399
13.9845 3.2724
14.0458 3.18276
14.1071 1.71424
14.1684 2.51268
14.2297 4.04161
14.291 4.19167
14.3523 2.88472
14.4135 1.86555
14.4748 1.18626
14.5361 2.90413
14.5974 3.00875
14.6587 2.35948
14.72 2.90947
14.7813 2.73161
14.8426 3.49259
14.9039 3.18718
14.9652 2.20602
15.0265 2.31994
15.0878 2.95602
15.1491 2.86427
15.2104 2.46134
15.2717 2.37225
15.333 3.06573
15.3943 1.75533
15.4556 2.00877
15.5169 2.23749
15.5782 2.59774
15.6395 2.126
15.7008 6.13475
15.7621 4.93649
15.8234 4.18228
15.8847 3.14293
15.946 2.41741
16.0073 1.06822
16.0686 1.1787
16.1299 0.61342
16.1912 1.14322
16.2525 1.28372
16.3138 1.00889
16.3751 1.09997
16.4364 0.072584
16.4977 0.452779
16.559 -0.129238
16.6203 0.149449
16.6816 0.481549
16.7429 0.814978
16.8042 0.264319
16.8655 0.313948
16.9268 1.1722
16.9881 -0.390099
17.0494 -0.518774
17.1107 -0.125287
17.172 -0.511721
17.2333 -0.219742
17.2946 -0.551434
17.3558 -0.0224218
17.4171 1.36729
17.4784 2.21146
17.5397 2.77051
17.601 4.3465
17.6623 4.25716
17.7236 3.51811
17.7849 2.02517
17.8462 -0.612266
17.9075 -1.32129
17.9688 -0.127946
18.0301 0.0511042
18.0914 -0.159142
18.1527 -0.107642
18.214 0.830603
18.2753 -0.573572
18.3366 -0.492043
18.3979 0.547112
18.4592 0.23343
18.5205 0.467952
18.5818 -0.0514048
18.6431 -0.0225578
18.7044 -0.200715
18.7657 0.0391238
18.827 0.436542
18.8883 0.0800804
18.9496 0.454115
19.0109 -0.0819797
19.0722 0.138463
19.1335 0.0998186
19.1948 0.0364616
19.2561 -0.259941
19.3174 -0.450848
19.3787 0.0626987
19.44 0.707783
19.5013 0.703155
19.5626 0.465482
19.6239 0.0468455
19.6852 0.202455
19.7465 1.03648
19.8078 0.048912
19.8691 0.833509
19.9304 0.60381
19.9917 0.245233
20.053 0.903609
20.1143 -0.415852
20.1756 -0.0577915
20.2369 0.718265
20.2981 0.349817
20.3594 0.816032
20.4207 0.0856592
20.482 0.867032
20.5433 0.295568
20.6046 -0.144359
20.6659 0.61496
20.7272 -0.6296
20.7885 0.392794
20.8498 0.479017
20.9111 0.0717776
20.9724 0.160659
21.0337 0.40712
21.095 0.394493
21.1563 0.904029
21.2176 0.11281
21.2789 0.286463
21.3402 0.0447775
21.4015 -0.794537
21.4628 0.476853
21.5241 0.239156
21.5854 -0.309713
21.6467 -0.753085
21.708 0.263204
21.7693 0.551657
21.8306 0.763313
21.8919 0.195049
21.9532 -0.345844
22.0145 0.548067
22.0758 0.337129
22.1371 1.2994
22.1984 0.414032
22.2597 0.597706
22.321 1.38167
22.3823 2.193
22.4436 1.91191
22.5049 0.590487
22.5662 0.20789
22.6275 0.113081
22.6888 0.227935
22.7501 -0.150674
22.8114 0.617879
22.8727 0.11172
22.934 0.179807
22.9953 -0.558068
23.0566 -0.148782
23.1179 0.470168
23.1792 0.152946
23.2404 0.409971
23.3017 0.668324
23.363 -0.712618
23.4243 -0.347439
23.4856 0.620311
23.5469 0.443556
23.6082 0.320214
23.6695 0.17216
23.7308 0.0514764
23.7921 0.765455
23.8534 0.439097
23.9147 -0.0161408
23.976 0.675784
24.0373 0.717996
24.0986 0.657371
24.1599 0.0512002
24.2212 0.175525
24.2825 -0.781002
24.3438 0.221259
24.4051 0.417557
24.4664 0.719351
24.5277 0.605807
24.589 0.415468
24.6503 0.486874
24.7116 0.142943
24.7729 0.972216
24.8342 0.839277
24.8955 2.60871
24.9568 4.9003
25.0181 4.9276
25.0794 5.32081
25.1407 3.63202
25.202 3.14247
25.2633 1.66467
25.3246 0.188195
25.3859 0.978677
25.4472 0.520487
25.5085 0.662585
25.5698 -0.18357
25.6311 -0.533606
25.6924 0.336435
25.7537 0.843222
25.815 0.205505
25.8763 0.220158
25.9376 0.158016
25.9989 0.565953
26.0602 0.532511
26.1215 0.448314
26.1827 0.131072
26.244 0.30995
26.3053 -0.0655647
26.3666 -0.170988
26.4279 0.349919
26.4892 0.377362
26.5505 -0.0886565
26.6118 0.201862
26.6731 0.285377
26.7344 0.318137
26.7957 -0.0383981
26.857 0.491812
26.9183 -0.122481
26.9796 0.592679
27.0409 -0.331456
27.1022 0.259381
27.1635 -0.00782789
27.2248 0.299209
27.2861 0.633617
27.3474 0.682896
27.4087 -0.0998293
27.47 0.1344
27.5313 -0.932126
27.5926 0.751886
27.6539 0.139956
27.7152 0.180398
27.7765 -0.272624
27.8378 0.109017
27.8991 -0.185096
27.9604 -0.0351712
28.0217 0.584832
28.083 0.685332
28.1443 0.709036
28.2056 0.708027
28.2669 -0.0729029
28.3282 0.058955
28.3895 0.32235
28.4508 0.430825
28.5121 1.06146
28.5734 1.48509
28.6347 2.32672
28.696 2.04989
28.7573 0.836885
28.8186 0.432501
28.8799 0.00340515
28.9412 0.200638
29.0025 0.529408
29.0638 -0.130075
29.125 -0.00697976
29.1863 -0.403388
29.2476 1.28223
29.3089 0.963967
29.3702 1.48037
29.4315 1.08664
29.4928 0.720281
29.5541 0.277127
29.6154 -0.268864
29.6767 0.228141
29.738 0.440016
29.7993 -0.206154
29.8606 -0.0176616
29.9219 0.198201
29.9832 0.0508104
30.0445 0.0609985
30.1058 0.176682
30.1671 0.918696
30.2284 0.490163
30.2897 -0.067249
30.351 -0.0243733
30.4123 0.280248
30.4736 -0.351301
30.5349 0.53912
30.5962 0.0767045
30.6575 0.318743
30.7188 0.0933602
30.7801 0.312015
30.8414 0.479916
30.9027 0.466854
30.964 0.11658
31.0253 0.0261233
31.0866 -0.272302
31.1479 0.472269
31.2092 -0.500581
31.2705 0.11644
31.3318 0.682707
31.3931 0.755511
31.4544 0.0483943
31.5157 0.0196902
31.577 0.773565
31.6383 -0.216022
31.6996 0.254053
31.7609 0.282749
31.8222 -0.364309
31.8835 0.633861
31.9448 0.487527
32.0061 -0.0220609
32.0673 0.485305
32.1286 -0.516416
32.1899 -0.0584749
32.2512 -0.120038
32.3125 0.731187
32.3738 0.828532
32.4351 0.718873
32.4964 0.949085
32.5577 0.321252
32.619 0.0593303
32.6803 0.0331132
32.7416 0.190517
32.8029 0.0888332
32.8642 0.63952
32.9255 -0.00638004
32.9868 0.260507
33.0481 0.424557
33.1094 0.173269
33.1707 0.0535185
33.232 0.377806
33.2933 -0.598661
33.3546 -0.159871
33.4159 0.696915
33.4772 1.0342
33.5385 1.00823
33.5998 0.150249
33.6611 0.0488108
33.7224 0.495576
33.7837 0.865546
33.845 0.247262
33.9063 0.828223
33.9676 0.212597
34.0289 -0.167325
34.0902 0.599915
34.1515 0.0924435
34.2128 0.263384
34.2741 0.409612
34.3354 0.244669
34.3967 0.680014
34.458 0.0489798
34.5193 0.981775
34.5806 0.145065
34.6419 0.273227
34.7032 -0.274366
34.7645 0.155106
34.8258 0.143199
34.8871 0.184704
34.9484 -0.241212
35.0096 0.0894101
35.0709 0.369278
35.1322 1.58797
35.1935 1.92258
35.2548 0.487689
35.3161 -0.112543
35.3774 0.304179
35.4387 0.383689
35.5 1.21974
35.5613 1.14565
35.6226 1.25519
35.6839 1.44418
35.7452 0.384507
35.8065 0.393866
35.8678 -0.116278
35.9291 0.729073
35.9904 -0.0648719
36.0517 0.314388
36.113 -0.00814863
36.1743 0.764394
36.2356 -0.102359
36.2969 0.308259
36.3582 -0.269377
36.4195 0.0940986
36.4808 0.510987
36.5421 -0.425351
36.6034 -0.267388
36.6647 0.126279
36.726 -0.0516415
36.7873 -0.306358
36.8486 0.169422
36.9099 0.125698
36.9712 0.00517734
37.0325 0.615153
37.0938 0.523333
37.1551 -0.504658
37.2164 -0.0469453
37.2777 0.0995969
37.339 0.403718
37.4003 0.110211
37.4616 -0.312176
37.5229 0.405263
37.5842 0.0563237
37.6455 -0.108995
37.7068 0.065557
37.7681 0.449772
37.8294 0.522815
37.8907 0.805521
37.9519 1.71456
38.0132 1.34888
38.0745 1.68766
38.1358 2.80901
38.1971 4.94732
38.2584 10.4724
38.3197 17.405
38.381 40.0942
38.4423 83.2795
38.5036 48.6015
38.5649 20.8259
38.6262 3.67667
38.6875 1.97145
38.7488 0.475889
38.8101 0.179574
38.8714 0.0147975
38.9327 0.0857247
38.994 0.496523
39.0553 -0.133017
39.1166 0.0721064
39.1779 0.6171
39.2392 0.434257
39.3005 0.187941
39.3618 0.282103
39.4231 0.559886
39.4844 -0.124544
39.5457 0.234022
39.607 0.463709
39.6683 0.746809
39.7296 0.979154
39.7909 0.379495
39.8522 0.484291
39.9135 1.39771
39.9748 1.63537
40.0361 2.29103
40.0974 3.52093
40.1587 19.5438
40.22 20.2295
40.2813 20.6561
40.3426 5.3028
40.4039 1.2008
40.4652 0.798057
40.5265 0.344557
40.5878 0.829885
40.6491 0.0405017
40.7104 -0.0183862
40.7717 -0.258237
40.833 0.753242
40.8942 -0.218087
40.9555 0.364473
41.0168 -0.119346
41.0781 0.15025
41.1394 -0.288197
41.2007 0.108018
41.262 -0.0152705
41.3233 0.0408871
41.3846 0.226495
41.4459 0.38739
41.5072 0.132948
41.5685 0.322544
41.6298 -0.267782
41.6911 0.52343
41.7524 0.248263
41.8137 0.2088
41.875 0.300875
41.9363 0.498445
41.9976 0.905678
42.0589 0.350698
42.1202 0.44809
42.1815 0.312435
42.2428 -0.108349
42.3041 -0.0590531
42.3654 -0.138637
42.4267 -0.216891
42.488 0.152436
42.5493 0.199344
42.6106 -0.143044
42.6719 -0.119519
42.7332 0.504293
42.7945 0.296101
42.8558 0.141321
42.9171 -0.090254
42.9784 0.356583
43.0397 0.466208
43.101 0.499037
43.1623 0.533195
43.2236 0.516599
43.2849 0.423207
43.3462 0.487394
43.4075 0.162285
43.4688 0.281214
43.5301 0.0368888
43.5914 0.288684
43.6527 -0.0831909
43.714 0.171263
43.7753 0.505171
43.8365 -0.149175
43.8978 -0.0209419
43.9591 0.299896
44.0204 -0.0635493
44.0817 0.43371
44.143 0.177089
44.2043 0.156173
44.2656 0.0845032
44.3269 0.326662
44.3882 0.492025
44.4495 -0.070449
44.5108 -0.162844
44.5721 0.188798
44.6334 -0.031147
44.6947 0.292595
44.756 -0.0616749
44.8173 0.132259
44.8786 0.30148
44.9399 -0.205052
45.0012 0.23176
45.0625 0.149068
45.1238 0.0677059
45.1851 0.326214
45.2464 -0.143115
45.3077 0.300343
45.369 -0.114244
45.4303 0.305831
45.4916 0.49286
45.5529 -0.256282
45.6142 0.193823
45.6755 0.0983809
45.7368 0.290727
45.7981 0.276068
45.8594 0.366906
45.9207 -0.139886
45.982 -0.160641
46.0433 0.164345
46.1046 0.256285
46.1659 0.0370552
46.2272 -0.0506375
46.2885 -0.0588761
46.3498 -0.222035
46.4111 0.110926
46.4724 0.106675
46.5337 -0.00270705
46.595 -0.141388
46.6563 -0.122491
46.7176 0.132111
46.7788 0.726584
46.8401 0.697386
46.9014 0.383059
46.9627 0.51277
47.024 0.539642
47.0853 0.437636
47.1466 -0.00158257
47.2079 0.315736
47.2692 0.139592
47.3305 0.0429028
47.3918 0.103792
47.4531 0.113928
47.5144 0.222579
47.5757 -0.113638
47.637 -0.396443
47.6983 -0.157085
47.7596 -0.41119
47.8209 0.0391589
47.8822 -0.160204
47.9435 -0.175947
48.0048 0.12214
48.0661 0.027331
48.1274 -0.25564
48.1887 -0.0164488
48.25 0.380322
48.3113 0.153421
48.3726 -0.306525
48.4339 0.276525
48.4952 -0.415138
48.5565 0.509112
48.6178 -0.101768
48.6791 0.0438904
48.7404 0.138794
48.8017 0.0787773
48.863 -0.115221
48.9243 -0.187885
48.9856 0.105364
49.0469 0.00931603
49.1082 0.044806
49.1695 -0.15275
49.2308 -0.140643
49.2921 -0.127207
49.3534 0.0438079
49.4147 0.138027
49.476 0.038684
49.5373 -0.143755
49.5986 0.0397188
49.6599 0.172438
49.7211 0.124195
49.7824 -0.10501
49.8437 0.00565528
49.905 -0.19485
49.9663 0.256287
50.0276 0.0577118
50.0889 0.068799
50.1502 -0.127118
50.2115 -0.139414
50.2728 0.240244
50.3341 0.0743563
50.3954 0.0139644
50.4567 -0.00100438
50.518 -0.0827061
50.5793 -0.163079
50.6406 0.122461
50.7019 0.148914
50.7632 0.306904
50.8245 0.336015
50.8858 0.0799963
50.9471 -0.174693
51.0084 0.220866
51.0697 -0.0072452
51.131 0.573264
51.1923 -0.0428142
51.2536 0.33202
51.3149 0.109225
51.3762 0.160695
51.4375 0.00415714
51.4988 0.760407
51.5601 0.137777
51.6214 0.0893935
51.6827 0.198589
51.744 -0.107553
51.8053 0.238676
51.8666 0.273734
51.9279 0.231996
51.9892 0.0092955
52.0505 -0.0579298
52.1118 0.158424
52.1731 0.0636069
52.2344 -0.0819643
52.2957 -0.095998
52.357 0.151714
52.4183 0.140339
52.4796 0.0782093
52.5409 0.225742
52.6022 0.530855
52.6634 0.681046
52.7247 0.858608
52.786 2.05312
52.8473 3.53543
52.9086 6.34719
52.9699 22.5978
53.0312 38.7976
53.0925 12.3686
53.1538 28.5711
53.2151 6.64987
53.2764 1.70919
53.3377 0.44171
53.399 0.113059
53.4603 0.43678
53.5216 -0.0194201
53.5829 -0.109708
53.6442 0.113834
53.7055 0.0259844
53.7668 0.173399
53.8281 0.296102
53.8894 0.394092
53.9507 0.0246613
54.012 0.0383907
54.0733 -0.120389
54.1346 -0.0434644
54.1959 0.633748
54.2572 0.557081
54.3185 0.559868
54.3798 0.590026
54.4411 0.855888
54.5024 -0.335254
54.5637 0.480141
54.625 0.0208241
54.6863 0.0576279
54.7476 0.356178
54.8089 0.0570981
54.8702 0.0197644
54.9315 -0.0422818
54.9928 -0.0509154
55.0541 0.120327
55.1154 -0.00104803
55.1767 0.0351558
55.238 0.0466472
55.2993 0.163634
55.3606 0.151742
55.4219 0.320771
55.4832 0.0210286
55.5445 0.11324
55.6057 0.206781
55.667 0.171443
55.7283 -0.122982
55.7896 0.16891
55.8509 0.324938
55.9122 -0.168746
55.9735 -0.0107159
56.0348 0.226768
56.0961 0.205165
56.1574 -0.0246026
56.2187 0.135265
56.28 0.270421
56.3413 0.0423225
56.4026 -0.158405
56.4639 -0.0282035
56.5252 -0.105006
56.5865 0.236187
56.6478 -0.150457
56.7091 0.219437
56.7704 0.330243
56.8317 0.181961
56.893 0.00896712
56.9543 0.175844
57.0156 0.265925
57.0769 0.253168
57.1382 0.111533
57.1995 0.101434
57.2608 0.0405821
57.3221 0.00710065
57.3834 0.293468
57.4447 -0.0538455
57.506 0.173087
57.5673 -0.119486
57.6286 0.266355
57.6899 0.0285242
57.7512 0.417023
57.8125 0.338101
57.8738 -0.0259506
57.9351 0.0997863
57.9964 0.327853
58.0577 0.192665
58.119 0.11089
58.1803 -0.151848
58.2416 0.387839
58.3029 -0.190937
58.3642 0.273282
58.4255 -0.22471
58.4868 -0.0442906
58.548 0.606208
58.6093 -0.122172
58.6706 -0.120056
58.7319 0.0135968
58.7932 -0.137879
58.8545 0.102599
58.9158 0.110031
58.9771 0.0146261
59.0384 -0.00132493
59.0997 -0.0159468
59.161 0.205136
59.2223 0.453589
59.2836 0.104413
59.3449 -0.0412703
59.4062 0.296828
59.4675 -0.144994
59.5288 0.474003
59.5901 -0.181712
59.6514 -0.166947
59.7127 0.187688
59.774 0.647819
59.8353 -0.218846
59.8966 0.374152
59.9579 0.239313
60.0192 0.183927
60.0805 0.103829
60.1418 0.207352
60.2031 0.26012
60.2644 0.0798433
60.3257 0.187354
60.387 0.00973486
60.4483 0.0886602
60.5096 0.0543448
60.5709 -0.134891
60.6322 0.0417848
60.6935 0.0895819
60.7548 -0.0956668
60.8161 0.319372
60.8774 -0.0455101
60.9387 0.0596871
61 -0.0421199
61.0613 -0.0644728
61.1226 0.305129
61.1839 0.311476
61.2452 -0.149598
61.3065 0.126282
61.3678 0.169116
61.429 -0.0210957
61.4903 0.310855
61.5516 0.201427
61.6129 -0.0629225
61.6742 0.403224
61.7355 -0.0147168
61.7968 -0.0667451
61.8581 -0.143486
61.9194 -0.166814
61.9807 -0.13673
62.042 0.337392
62.1033 0.0836757
62.1646 -0.272878
62.2259 -0.214418
62.2872 0.105788
62.3485 0.0106563
62.4098 0.0991453
62.4711 0.00667191
62.5324 -0.0325835
62.5937 0.163476
62.655 -0.316218
62.7163 0.168958
62.7776 0.603381
62.8389 0.648507
62.9002 2.83038
62.9615 9.46671
63.0228 2.92728
63.0841 2.69126
63.1454 4.4097
63.2067 1.10343
63.268 0.376609
63.3293 0.250077
63.3906 0.124875
63.4519 0.0530845
63.5132 0.0607485
63.5745 -0.216717
63.6358 0.106106
63.6971 0.0917157
63.7584 0.104696
63.8197 -0.245577
63.881 -0.0736879
63.9423 0.25578
64.0036 0.0397027
64.0649 0.0549431
64.1262 0.192948
64.1875 0.0197829
64.2488 0.104657
64.3101 0.150234
64.3713 0.0633476
64.4326 -0.256585
64.4939 0.101895
64.5552 0.123163
64.6165 0.0936761
64.6778 -0.0907313
64.7391 0.0386904
64.8004 -0.038892
64.8617 0.145271
64.923 -0.137986
64.9843 -0.0813726
65.0456 0.263028
65.1069 0.244175
65.1682 0.148526
65.2295 0.366706
65.2908 0.0393405
65.3521 0.103929
65.4134 -0.377028
65.4747 -0.0461443
65.536 0.312111
65.5973 0.255028
65.6586 -0.00905867
65.7199 0.118809
65.7812 -0.14262
65.8425 -0.309212
65.9038 0.249361
65.9651 -0.0501121
66.0264 0.0423692
66.0877 0.00597141
66.149 0.309444
66.2103 -0.219087
66.2716 0.16517
66.3329 0.0820053
66.3942 -0.15608
66.4555 -0.00221108
66.5168 0.074862
66.5781 -0.00298574
66.6394 0.206954
66.7007 0.0015563
66.762 0.136029
66.8233 -0.06671
66.8846 0.252713
66.9459 -0.207785
67.0072 0.230017
67.0685 -0.112101
67.1298 0.120026
67.1911 0.119107
67.2524 0.119517
67.3136 0.121257
67.3749 0.0722422
67.4362 -0.105652
67.4975 -0.184624
67.5588 0.45375
67.6201 0.0778291
67.6814 -0.0623881
67.7427 -0.0189845
67.804 -0.0784183
67.8653 0.306185
67.9266 0.0150348
67.9879 -0.17062
68.0492 0.139846
68.1105 -0.0691917
68.1718 0.0355995
68.2331 -0.118697
68.2944 0.0905217
68.3557 -0.432893
68.417 0.164814
68.4783 0.0607245
68.5396 0.0100477
68.6009 0.0909083
68.6622 0.225181
68.7235 -0.186091
68.7848 -0.189344
68.8461 -0.211219
68.9074 -0.15364
68.9687 0.0354772
69.03 -0.164702
69.0913 0.0140062
69.1526 0.168002
69.2139 -0.171465
69.2752 -0.0148108
69.3365 0.0390058
69.3978 0.120193
69.4591 -0.0577069
69.5204 -0.157172
69.5817 -0.203733
69.643 0.115618
69.7043 0.280048
69.7656 0.211432
69.8269 0.404562
69.8882 0.390688
69.9495 0.273977
70.0108 0.471094
70.0721 0.435166
70.1334 1.18182
70.1947 1.07042
70.2559 1.84577
70.3172 3.19537
70.3785 4.91088
70.4398 6.3673
70.5011 9.59589
70.5624 20.5341
70.6237 98.0362
70.685 63.5604
70.7463 18.7735
70.8076 34.04
70.8689 43.9432
70.9302 10.3582
70.9915 3.62345
71.0528 1.26504
71.1141 0.756917
71.1754 0.380331
71.2367 -0.0470099
71.298 0.33427
71.3593 -0.194579
71.4206 0.0066139
71.4819 0.130101
71.5432 -0.0575819
71.6045 -0.217894
71.6658 0.0137473
71.7271 0.220676
71.7884 0.428935
71.8497 -0.220853
71.911 0.272616
71.9723 0.168455
72.0336 -0.220835
72.0949 -0.0400333
72.1562 0.0118895
72.2175 -0.0911085
72.2788 -0.0625691
72.3401 -0.136867
72.4014 0.0766224
72.4627 0.161233
72.524 0.0127972
72.5853 0.126107
72.6466 0.0324137
72.7079 0.174424
72.7692 0.0313052
72.8305 0.149932
72.8918 0.0875968
72.9531 -0.207785
73.0144 0.59707
73.0757 0.023046
73.137 -0.00277414
73.1982 0.36336
73.2595 0.0800479
73.3208 0.423598
73.3821 0.0913938
73.4434 0.255311
73.5047 -0.178402
73.566 0.170465
73.6273 -0.0782976
73.6886 0.0648941
73.7499 -0.129127
73.8112 0.0427651
73.8725 -0.0704723
73.9338 0.0653634
73.9951 0.144108
74.0564 0.224183
74.1177 0.0972529
74.179 -0.158556
74.2403 -0.0744944
74.3016 0.0369382
74.3629 0.509321
74.4242 0.0430521
74.4855 -0.187513
74.5468 0.104085
74.6081 0.188678
74.6694 0.248559
74.7307 -0.0808556
74.792 -0.0117807
74.8533 -0.0813381
74.9146 -0.019358
74.9759 0.0179096
75.0372 0.10859
75.0985 -0.216068
75.1598 -0.0446042
75.2211 0.31048
75.2824 -0.0622731
75.3437 -0.251405
75.405 0.055583
75.4663 0.0483687
75.5276 -0.406289
75.5889 -0.000241765
75.6502 0.0946342
75.7115 0.0866728
75.7728 -0.0762095
75.8341 0.387237
75.8954 0.409305
75.9567 0.302494
76.018 0.32722
76.0793 1.44702
76.1405 3.14108
76.2018 9.91458
76.2631 5.179
76.3244 1.74683
76.3857 3.31599
76.447 4.57398
76.5083 1.06767
76.5696 0.297067
76.6309 0.10071
76.6922 -0.0422348
76.7535 0.12865
76.8148 0.0625706
76.8761 0.146235
76.9374 0.101021
76.9987 -0.0209893
77.06 -0.0146111
77.1213 0.0128399
77.1826 -0.0133621
77.2439 -0.0917676
77.3052 0.508239
77.3665 0.8752
77.4278 0.305991
77.4891 0.154777
77.5504 0.343434
77.6117 0.273003
77.673 -0.0044315
77.7343 -0.0722037
77.7956 0.0696866
77.8569 0.0826978
77.9182 -0.0592119
77.9795 -0.173751
78.0408 -0.0265437
78.1021 0.0959508
78.1634 0.167691
78.2247 0.162636
78.286 0.352673
78.3473 0.406546
78.4086 0.0711231
78.4699 -0.0285955
78.5312 0.185515
78.5925 0.0884547
78.6538 0.331265
78.7151 0.236863
78.7764 0.0135823
78.8377 -0.0521196
78.899 -0.142534
78.9603 0.285432
79.0216 0.0897265
79.0828 0.103684
79.1441 0.066887
79.2054 0.135586
79.2667 0.101448
79.328 -0.06157
79.3893 0.193408
79.4506 0.0851323
79.5119 0.0823522
79.5732 -0.0753488
79.6345 0.106821
79.6958 0.316362
79.7571 -0.0717265
79.8184 0.140473
79.8797 0.119626
79.941 0.048025
80.0023 0.107962
80.0636 0.117144
80.1249 0.414114
80.1862 0.165538
80.2475 0.126625
80.3088 0.0890407
80.3701 -0.129506
80.4314 0.3468
80.4927 0.303602
80.554 0.105483
80.6153 0.351401
80.6766 0.234066
80.7379 0.0920174
80.7992 0.00338177
80.8605 -0.0578831
80.9218 0.064473
80.9831 0.162116
81.0444 0.182964
81.1057 0.257224
81.167 0.28073
81.2283 0.045149
81.2896 0.253605
81.3509 0.229015
81.4122 -0.132787
81.4735 0.00700602
81.5348 0.0700032
81.5961 0.264538
81.6574 0.0176934
81.7187 -0.0194886
81.78 0.152992
81.8413 0.14451
81.9026 0.423815
81.9639 0.131534
82.0251 0.309331
82.0864 0.618665
82.1477 0.981413
82.209 2.62153
82.2703 5.07027
82.3316 1.66096
82.3929 0.700902
82.4542 1.513
82.5155 2.89935
82.5768 0.979735
82.6381 0.311449
82.6994 -0.147174
82.7607 0.280948
82.822 0.0333162
82.8833 0.255764
82.9446 -0.0933766
83.0059 0.0796457
83.0672 -0.0324611
83.1285 -0.0651138
83.1898 0.0546289
83.2511 -0.0430003
83.3124 0.0429914
83.3737 0.26052
83.435 0.375212
83.4963 0.100608
83.5576 -0.122146
83.6189 0.0941387
83.6802 -0.0788723
83.7415 0.0879876
83.8028 0.0218017
83.8641 -0.043055
83.9254 -0.0480278
83.9867 0.251043
84.048 0.134777
84.1093 0.254215
84.1706 0.296857
84.2319 0.0283287
84.2932 -0.0565792
84.3545 0.354634
84.4158 0.0380093
84.4771 -0.0949944
84.5384 0.216039
84.5997 0.346111
84.661 0.13897
84.7223 0.167533
84.7836 -0.0659818
84.8449 0.346894
84.9062 0.292349
84.9674 -0.125449
85.0287 0.00495587
85.09 -0.105939
85.1513 -0.115464
85.2126 0.162797
85.2739 0.234055
85.3352 0.12435
85.3965 -0.166317
85.4578 0.0391361
85.5191 -0.144706
85.5804 0.0113222
85.6417 -0.14382
85.703 0.0409083
85.7643 -0.189701
85.8256 -0.0283555
85.8869 0.108277
85.9482 0.246239
86.0095 0.22928
86.0708 -0.124891
86.1321 0.309272
86.1934 0.145807
86.2547 0.00971183
86.316 0.109321
86.3773 0.132135
86.4386 2.76808e-05
86.4999 0.155708
86.5612 -0.103949
86.6225 0.158556
86.6838 0.109891
86.7451 0.349013
86.8064 0.276964
86.8677 0.0499941
86.929 -0.106066
86.9903 0.151597
87.0516 0.124131
87.1129 0.071953
87.1742 0.0211038
87.2355 -0.0544578
87.2968 0.261935
87.3581 0.241115
87.4194 0.0914156
87.4807 0.0472123
87.542 0.18663
87.6033 -0.141373
87.6646 -0.207631
87.7259 0.0821229
87.7872 -0.0174191
87.8485 0.170826
87.9097 0.0479012
87.971 0.082555
88.0323 0.0404131
88.0936 0.3121
88.1549 0.0122001
88.2162 0.0891043
88.2775 0.185805
88.3388 0.0234174
88.4001 0.0706927
88.4614 -0.0629945
88.5227 0.169231
88.584 0.16841
88.6453 0.377252
88.7066 -0.0386322
88.7679 -0.0907156
88.8292 0.0548471
88.8905 0.482189
88.9518 0.0775268
89.0131 0.0127355
89.0744 0.0273983
89.1357 0.303807
89.197 0.138836
89.2583 0.235612
89.3196 0.463925
89.3809 -0.19185
89.4422 0.0651628
89.5035 0.0891298
89.5648 -0.0157823
89.6261 -0.0151986
89.6874 -0.0914107
89.7487 0.163547
89.81 0.155066
89.8713 0.199998
89.9326 -0.0966384
89.9939 -0.140239