File: XRD/OER Sample 2 (Ti TiO2 Sb2S3 MoO3)_25112020_bg_subtracted.xy
'Id: "Commander Sample ID" Comment: "" Operator: "Lab Manager" Anode: "Cu" Scantype: "Coupled TwoTheta/Theta" TimePerStep: "38.4"
10.0001 -0.594982
10.0614 0.167813
10.1227 -1.40314
10.184 0.0478395
10.2453 0.00321645
10.3066 -0.663918
10.3679 -0.0479717
10.4292 0.699282
10.4905 0.770551
10.5518 0.270003
10.6131 0.473678
10.6744 -0.389257
10.7357 0.233282
10.797 1.58609
10.8583 0.59624
10.9196 1.11791
10.9809 0.286509
11.0422 0.185375
11.1035 1.98638
11.1648 2.72078
11.2261 2.46669
11.2874 1.87516
11.3487 1.64931
11.41 2.44019
11.4713 2.26862
11.5325 2.93148
11.5938 3.33503
11.6551 2.93238
11.7164 3.15583
11.7777 2.80747
11.839 3.91853
11.9003 4.50986
11.9616 4.84188
12.0229 5.87811
12.0842 5.92587
12.1455 4.85493
12.2068 6.10279
12.2681 4.98197
12.3294 6.75286
12.3907 6.6759
12.452 7.19899
12.5133 8.32215
12.5746 8.8214
12.6359 8.9832
12.6972 10.6044
12.7585 9.64866
12.8198 10.0481
12.8811 10.631
12.9424 11.6056
13.0037 10.9407
13.065 11.657
13.1263 13.911
13.1876 13.0931
13.2489 13.7346
13.3102 13.5179
13.3715 11.896
13.4328 13.3221
13.4941 14.2805
13.5554 13.1567
13.6167 15.3674
13.678 13.9593
13.7393 11.9274
13.8006 14.0111
13.8619 16.122
13.9232 15.3954
13.9845 14.8001
14.0458 16.5757
14.1071 15.2274
14.1684 14.2969
14.2297 15.1904
14.291 13.4027
14.3523 14.9234
14.4135 14.9609
14.4748 15.8327
14.5361 17.0702
14.5974 15.1839
14.6587 15.1736
14.72 15.2946
14.7813 15.1303
14.8426 14.6286
14.9039 13.4508
14.9652 14.5919
15.0265 14.0934
15.0878 15.2106
15.1491 15.157
15.2104 13.8806
15.2717 14.4282
15.333 11.904
15.3943 13.9642
15.4556 12.5099
15.5169 13.1921
15.5782 10.9327
15.6395 12.9712
15.7008 15.6098
15.7621 14.9162
15.8234 12.557
15.8847 11.2927
15.946 10.3159
16.0073 10.3559
16.0686 9.43338
16.1299 10.8297
16.1912 8.50314
16.2525 10.1621
16.3138 11.8742
16.3751 10.879
16.4364 9.7548
16.4977 9.17853
16.559 9.95753
16.6203 8.3418
16.6816 8.0032
16.7429 7.92612
16.8042 7.61577
16.8655 8.00964
16.9268 7.41502
16.9881 7.65484
17.0494 6.09888
17.1107 7.56485
17.172 6.79234
17.2333 7.53134
17.2946 8.03706
17.3558 6.30431
17.4171 6.78619
17.4784 4.84729
17.5397 8.40429
17.601 10.6082
17.6623 9.32366
17.7236 7.70166
17.7849 5.71618
17.8462 6.49221
17.9075 6.436
17.9688 4.06319
18.0301 5.75398
18.0914 3.53961
18.1527 4.24301
18.214 4.55688
18.2753 3.69998
18.3366 4.22439
18.3979 3.55197
18.4592 4.18274
18.5205 3.72086
18.5818 3.91111
18.6431 4.25872
18.7044 3.33138
18.7657 3.68119
18.827 2.73001
18.8883 1.75388
18.9496 1.76844
19.0109 3.39868
19.0722 2.71231
19.1335 3.09475
19.1948 2.07203
19.2561 1.80563
19.3174 1.20178
19.3787 3.43757
19.44 2.44529
19.5013 1.76661
19.5626 1.55778
19.6239 1.68859
19.6852 0.726752
19.7465 0.989968
19.8078 2.53032
19.8691 2.69157
19.9304 0.0153759
19.9917 1.24653
20.053 0.76003
20.1143 0.561088
20.1756 0.988246
20.2369 1.23421
20.2981 1.22086
20.3594 1.00027
20.4207 0.884945
20.482 0.0675955
20.5433 -0.305947
20.6046 2.05598
20.6659 0.721098
20.7272 -0.352273
20.7885 -0.56517
20.8498 -0.307287
20.9111 -0.334763
20.9724 -0.387181
21.0337 1.48858
21.095 0.34461
21.1563 0.217362
21.2176 -0.0129535
21.2789 0.825538
21.3402 -0.157789
21.4015 -0.697309
21.4628 1.42052
21.5241 0.570698
21.5854 -0.121775
21.6467 -1.07357
21.708 -0.357593
21.7693 0.98448
21.8306 -0.589016
21.8919 0.833379
21.9532 0.0433315
22.0145 0.660632
22.0758 0.62799
22.1371 0.987072
22.1984 0.644127
22.2597 0.823114
22.321 1.15945
22.3823 1.26251
22.4436 1.44479
22.5049 1.47193
22.5662 1.00536
22.6275 0.435736
22.6888 0.210508
22.7501 0.334442
22.8114 0.277184
22.8727 0.0908152
22.934 0.192004
22.9953 0.971374
23.0566 0.632052
23.1179 0.866745
23.1792 1.15462
23.2404 -0.118906
23.3017 0.796167
23.363 0.384213
23.4243 0.337941
23.4856 0.266726
23.5469 0.44022
23.6082 1.07516
23.6695 0.51328
23.7308 0.10875
23.7921 1.91886
23.8534 1.28215
23.9147 0.568418
23.976 0.480783
24.0373 0.993205
24.0986 0.152558
24.1599 0.147967
24.2212 0.356054
24.2825 0.0444056
24.3438 0.853648
24.4051 -0.497469
24.4664 1.1473
24.5277 0.162967
24.589 0.42973
24.6503 0.645507
24.7116 0.65405
24.7729 -0.0394331
24.8342 0.674432
24.8955 3.05606
24.9568 3.43358
25.0181 3.9945
25.0794 3.82734
25.1407 3.11441
25.202 2.22028
25.2633 1.84809
25.3246 0.904076
25.3859 0.638246
25.4472 0.92039
25.5085 0.292175
25.5698 0.732767
25.6311 0.0546652
25.6924 0.00266255
25.7537 0.238217
25.815 0.709245
25.8763 0.295955
25.9376 0.118139
25.9989 -0.292953
26.0602 -0.494614
26.1215 -0.0132433
26.1827 -0.129732
26.244 0.692377
26.3053 0.864544
26.3666 -0.0038575
26.4279 0.795507
26.4892 0.00742765
26.5505 -0.597261
26.6118 1.06477
26.6731 0.0976999
26.7344 1.70985
26.7957 0.588722
26.857 0.19786
26.9183 -0.883249
26.9796 0.29988
27.0409 0.650775
27.1022 1.73193
27.1635 1.77253
27.2248 0.564217
27.2861 0.841382
27.3474 0.494645
27.4087 0.383382
27.47 0.325301
27.5313 0.424568
27.5926 -0.360482
27.6539 1.12119
27.7152 -0.0783282
27.7765 0.389918
27.8378 0.130095
27.8991 0.860955
27.9604 0.342914
28.0217 0.529096
28.083 0.950752
28.1443 -0.0327431
28.2056 0.885902
28.2669 0.321271
28.3282 1.03378
28.3895 0.731763
28.4508 0.352719
28.5121 1.53727
28.5734 1.3948
28.6347 2.34718
28.696 0.98295
28.7573 1.65107
28.8186 0.471324
28.8799 1.79268
28.9412 0.0422175
29.0025 0.792854
29.0638 0.841465
29.125 0.0578403
29.1863 1.67115
29.2476 0.23868
29.3089 1.61981
29.3702 1.54371
29.4315 1.20828
29.4928 0.353126
29.5541 0.358443
29.6154 0.23465
29.6767 0.216122
29.738 0.823694
29.7993 -0.33847
29.8606 1.33901
29.9219 0.751958
29.9832 0.582674
30.0445 -0.236553
30.1058 1.05469
30.1671 1.01891
30.2284 0.827983
30.2897 0.716276
30.351 -0.14954
30.4123 0.183658
30.4736 1.24712
30.5349 0.723143
30.5962 -0.16432
30.6575 0.197943
30.7188 0.352286
30.7801 -0.690189
30.8414 0.0392677
30.9027 -0.245802
30.964 -0.113106
31.0253 1.03631
31.0866 -0.209001
31.1479 -0.515717
31.2092 0.298457
31.2705 0.0460214
31.3318 0.081143
31.3931 -0.794095
31.4544 0.950935
31.5157 -0.610227
31.577 0.720334
31.6383 -0.135506
31.6996 -0.10483
31.7609 -0.281389
31.8222 -0.248517
31.8835 0.0458716
31.9448 -0.2576
32.0061 1.15878
32.0673 -0.13208
32.1286 -0.0155886
32.1899 -0.470915
32.2512 0.582914
32.3125 0.231593
32.3738 1.28762
32.4351 1.3812
32.4964 1.68422
32.5577 1.49354
32.619 0.522715
32.6803 0.464444
32.7416 0.251021
32.8029 -0.195677
32.8642 0.348306
32.9255 0.112138
32.9868 0.37186
33.0481 0.580598
33.1094 0.39981
33.1707 0.0899116
33.232 0.327987
33.2933 1.06195
33.3546 -0.312357
33.4159 0.762348
33.4772 0.900652
33.5385 0.909846
33.5998 0.659722
33.6611 0.358614
33.7224 0.527354
33.7837 1.24407
33.845 0.0347973
33.9063 0.232875
33.9676 0.484135
34.0289 0.684411
34.0902 0.755577
34.1515 0.619508
34.2128 1.10954
34.2741 -0.0117846
34.3354 0.851422
34.3967 0.986561
34.458 1.09676
34.5193 0.218468
34.5806 -0.0337226
34.6419 0.626644
34.7032 0.845401
34.7645 0.622549
34.8258 0.531004
34.8871 -0.496943
34.9484 0.168918
35.0096 -0.127665
35.0709 1.16539
35.1322 1.70434
35.1935 2.01001
35.2548 0.936575
35.3161 -0.423326
35.3774 0.220873
35.4387 0.293253
35.5 0.1584
35.5613 1.01423
35.6226 2.26178
35.6839 2.54689
35.7452 0.359137
35.8065 0.854777
35.8678 0.231724
35.9291 0.156644
35.9904 -0.542337
36.0517 -0.172511
36.113 -0.140128
36.1743 0.153771
36.2356 0.370643
36.2969 0.0417389
36.3582 0.59935
36.4195 0.116394
36.4808 -0.339423
36.5421 -0.0389319
36.6034 -0.127967
36.6647 -0.0596542
36.726 0.764966
36.7873 -0.0144498
36.8486 0.580297
36.9099 0.551142
36.9712 0.262669
37.0325 -0.128871
37.0938 0.912979
37.1551 -0.0232395
37.2164 0.890599
37.2777 0.29512
37.339 -0.533635
37.4003 0.525686
37.4616 0.41423
37.5229 -0.295085
37.5842 0.11649
37.6455 0.607289
37.7068 -0.176855
37.7681 0.576558
37.8294 1.61753
37.8907 0.706472
37.9519 1.02047
38.0132 1.33557
38.0745 2.95385
38.1358 4.00032
38.1971 4.94371
38.2584 7.58091
38.3197 14.1255
38.381 28.1711
38.4423 54.0147
38.5036 34.4168
38.5649 19.9501
38.6262 5.71887
38.6875 2.79085
38.7488 0.983715
38.8101 0.818306
38.8714 0.263371
38.9327 0.100159
38.994 -0.452579
39.0553 0.375991
39.1166 0.0337836
39.1779 -0.151075
39.2392 0.899056
39.3005 -0.323394
39.3618 0.512547
39.4231 0.307919
39.4844 -0.937276
39.5457 0.146641
39.607 0.242073
39.6683 0.312562
39.7296 0.592484
39.7909 0.508921
39.8522 0.452498
39.9135 1.02217
39.9748 0.967948
40.0361 2.03461
40.0974 4.95133
40.1587 11.9577
40.22 19.1995
40.2813 14.8018
40.3426 7.54067
40.4039 2.46809
40.4652 1.06849
40.5265 1.62311
40.5878 0.876748
40.6491 0.0793998
40.7104 -0.0137244
40.7717 -0.366167
40.833 0.0897816
40.8942 0.703078
40.9555 0.0414324
41.0168 0.526718
41.0781 0.33602
41.1394 0.745378
41.2007 0.0100019
41.262 -0.0856341
41.3233 0.412587
41.3846 0.703573
41.4459 0.24045
41.5072 0.299259
41.5685 0.281041
41.6298 0.680589
41.6911 0.0135276
41.7524 -0.313894
41.8137 0.453534
41.875 -0.18419
41.9363 -0.221857
41.9976 0.106158
42.0589 0.148813
42.1202 0.166526
42.1815 0.107212
42.2428 0.075039
42.3041 -0.190411
42.3654 0.717113
42.4267 0.245528
42.488 0.295874
42.5493 -0.27768
42.6106 0.139447
42.6719 0.401423
42.7332 0.456164
42.7945 0.381796
42.8558 -0.446682
42.9171 0.449788
42.9784 1.12855
43.0397 0.350082
43.101 0.900836
43.1623 0.749563
43.2236 1.58897
43.2849 0.424272
43.3462 0.432545
43.4075 0.129417
43.4688 0.686763
43.5301 0.0733321
43.5914 0.528709
43.6527 0.0476837
43.714 -0.223909
43.7753 0.33893
43.8365 0.0174515
43.8978 0.374155
43.9591 0.575707
44.0204 -0.211226
44.0817 0.25294
44.143 0.353622
44.2043 -0.143556
44.2656 0.0114062
44.3269 0.0372588
44.3882 0.142335
44.4495 0.0141353
44.5108 0.225576
44.5721 0.229782
44.6334 0.183003
44.6947 0.137323
44.756 0.0666996
44.8173 -0.0352164
44.8786 0.511833
44.9399 0.356856
45.0012 0.098811
45.0625 0.258531
45.1238 0.0547673
45.1851 0.398977
45.2464 0.145327
45.3077 -0.197372
45.369 0.184183
45.4303 -0.16233
45.4916 0.586006
45.5529 0.189608
45.6142 -0.257776
45.6755 0.0251065
45.7368 0.725754
45.7981 0.516042
45.8594 -0.44778
45.9207 -0.0563363
45.982 -0.314836
46.0433 0.599639
46.1046 -0.239879
46.1659 0.22923
46.2272 -0.00368806
46.2885 0.389493
46.3498 0.158772
46.4111 -0.305224
46.4724 0.507919
46.5337 0.0200785
46.595 0.470836
46.6563 -0.0668906
46.7176 0.46419
46.7788 0.163035
46.8401 1.84215
46.9014 1.38694
46.9627 0.255748
47.024 0.193363
47.0853 0.783119
47.1466 0.38439
47.2079 0.820093
47.2692 0.579812
47.3305 0.288546
47.3918 0.0244201
47.4531 0.594726
47.5144 0.463007
47.5757 0.801135
47.637 0.359113
47.6983 -0.0297275
47.7596 -0.131011
47.8209 0.185471
47.8822 0.294718
47.9435 -0.29806
48.0048 0.459019
48.0661 -0.241136
48.1274 -0.0026929
48.1887 0.419141
48.25 0.295198
48.3113 0.172355
48.3726 0.337068
48.4339 0.34663
48.4952 -0.0854175
48.5565 0.186759
48.6178 0.0694084
48.6791 0.500032
48.7404 -0.552621
48.8017 -0.197925
48.863 -0.389005
48.9243 -0.188362
48.9856 -0.0229353
49.0469 0.00824461
49.1082 -0.0636434
49.1695 0.412442
49.2308 -0.073915
49.2921 0.11791
49.3534 -0.730833
49.4147 0.73923
49.476 0.335393
49.5373 -0.275679
49.5986 0.208098
49.6599 -0.348694
49.7211 0.319572
49.7824 0.155603
49.8437 0.0187748
49.905 0.0653367
49.9663 0.217164
50.0276 -0.202827
50.0889 0.626192
50.1502 0.543806
50.2115 0.280227
50.2728 -0.094656
50.3341 -0.120328
50.3954 0.115515
50.4567 0.144124
50.518 0.277998
50.5793 -0.0557787
50.6406 -0.310332
50.7019 0.0872548
50.7632 0.251565
50.8245 -0.28615
50.8858 0.342294
50.9471 -0.0698299
51.0084 0.404562
51.0697 -0.39599
51.131 0.0545575
51.1923 -0.0146299
51.2536 0.229781
51.3149 -0.17575
51.3762 0.168303
51.4375 0.239594
51.4988 0.598443
51.5601 -0.0572354
51.6214 0.30381
51.6827 0.353455
51.744 -0.142677
51.8053 -0.273127
51.8666 0.318335
51.9279 0.364022
51.9892 0.020182
52.0505 0.250358
52.1118 -0.16941
52.1731 0.107347
52.2344 0.277187
52.2957 0.187709
52.357 -0.265254
52.4183 0.324548
52.4796 0.342532
52.5409 0.257449
52.6022 0.902631
52.6634 0.455161
52.7247 1.49317
52.786 2.29789
52.8473 3.4683
52.9086 4.90023
52.9699 14.7447
53.0312 33.4965
53.0925 16.0255
53.1538 19.7275
53.2151 10.4878
53.2764 2.88985
53.3377 -0.149696
53.399 0.171228
53.4603 -0.00154164
53.5216 0.00907923
53.5829 0.0207988
53.6442 -0.200758
53.7055 0.114683
53.7668 0.165317
53.8281 -0.590241
53.8894 0.478216
53.9507 0.245688
54.012 0.274676
54.0733 0.955804
54.1346 0.205739
54.1959 0.706773
54.2572 0.297447
54.3185 0.878804
54.3798 1.43522
54.4411 0.300021
54.5024 0.494048
54.5637 0.480841
54.625 0.260399
54.6863 0.327514
54.7476 0.291562
54.8089 0.178583
54.8702 -0.376006
54.9315 0.138212
54.9928 0.679571
55.0541 0.831404
55.1154 0.515585
55.1767 0.12274
55.238 0.0955767
55.2993 0.980971
55.3606 0.148713
55.4219 0.437346
55.4832 -0.0802134
55.5445 0.0283254
55.6057 0.632755
55.667 0.457033
55.7283 -0.280262
55.7896 0.384241
55.8509 0.502968
55.9122 -0.288664
55.9735 0.0145519
56.0348 0.136575
56.0961 0.31178
56.1574 0.201626
56.2187 0.639445
56.28 0.140863
56.3413 0.450672
56.4026 0.214704
56.4639 0.266293
56.5252 0.136689
56.5865 -0.0959828
56.6478 -0.431723
56.7091 -0.40178
56.7704 -0.188448
56.8317 0.130151
56.893 -0.0449443
56.9543 -0.0626905
57.0156 0.181079
57.0769 -0.251137
57.1382 0.0648813
57.1995 -0.0346685
57.2608 -0.211245
57.3221 0.576819
57.3834 0.714941
57.4447 0.281244
57.506 0.109063
57.5673 -0.0880616
57.6286 -0.33617
57.6899 0.276194
57.7512 0.238616
57.8125 0.0719284
57.8738 0.375089
57.9351 0.340807
57.9964 0.125332
58.0577 0.0151228
58.119 0.244554
58.1803 0.475083
58.2416 -0.000393766
58.3029 0.454768
58.3642 0.338112
58.4255 0.0142216
58.4868 0.0446247
58.548 -0.181025
58.6093 -0.0670346
58.6706 0.0480547
58.7319 0.294451
58.7932 -0.109096
58.8545 0.00928979
58.9158 0.180857
58.9771 0.249357
59.0384 0.423122
59.0997 0.155277
59.161 -0.0333442
59.2223 0.247883
59.2836 0.165627
59.3449 0.162593
59.4062 0.108575
59.4675 0.10774
59.5288 -0.100331
59.5901 0.00519739
59.6514 -0.096509
59.7127 -0.014825
59.774 0.276291
59.8353 0.0476725
59.8966 -0.179847
59.9579 0.453107
60.0192 -0.345133
60.0805 0.107727
60.1418 0.249185
60.2031 0.287576
60.2644 0.431231
60.3257 -0.153181
60.387 0.114695
60.4483 0.0547988
60.5096 0.230157
60.5709 0.35442
60.6322 0.505824
60.6935 0.293743
60.7548 -0.0214056
60.8161 0.159336
60.8774 0.367218
60.9387 -0.126926
61 -0.0210135
61.0613 0.372456
61.1226 0.0638998
61.1839 -0.0690301
61.2452 0.498382
61.3065 0.389809
61.3678 0.152127
61.429 0.0711115
61.4903 0.328372
61.5516 0.0138148
61.6129 -0.0393206
61.6742 0.169013
61.7355 0.11538
61.7968 -0.307034
61.8581 0.131025
61.9194 -0.0808584
61.9807 0.255232
62.042 0.253879
62.1033 0.1755
62.1646 0.228428
62.2259 -0.160253
62.2872 0.285497
62.3485 0.419846
62.4098 -0.199914
62.4711 -0.167534
62.5324 0.178444
62.5937 0.213022
62.655 0.196615
62.7163 0.597973
62.7776 0.193138
62.8389 0.466485
62.9002 1.20968
62.9615 4.76648
63.0228 4.67854
63.0841 2.71669
63.1454 2.68303
63.2067 2.88485
63.268 0.509638
63.3293 0.166775
63.3906 0.319802
63.4519 -0.0208639
63.5132 0.163162
63.5745 0.492897
63.6358 -0.139812
63.6971 -0.172464
63.7584 0.290775
63.8197 0.390529
63.881 -0.47216
63.9423 0.150625
64.0036 0.3318
64.0649 0.383866
64.1262 0.0724469
64.1875 0.204835
64.2488 0.208113
64.3101 -0.152093
64.3713 0.0835273
64.4326 0.682714
64.4939 -0.0451253
64.5552 0.217717
64.6165 0.221242
64.6778 0.30399
64.7391 0.179504
64.8004 0.550908
64.8617 0.0900776
64.923 0.203262
64.9843 0.161296
65.0456 0.120428
65.1069 0.367118
65.1682 -0.166344
65.2295 0.369001
65.2908 0.697111
65.3521 0.192987
65.4134 0.262878
65.4747 0.141917
65.536 0.367317
65.5973 -0.0832675
65.6586 0.30058
65.7199 -0.0957235
65.7812 0.472613
65.8425 -0.546493
65.9038 0.254382
65.9651 0.405315
66.0264 0.0625545
66.0877 0.0594344
66.149 0.265746
66.2103 0.0825321
66.2716 0.395208
66.3329 0.318358
66.3942 -0.17406
66.4555 0.167953
66.5168 0.120441
66.5781 0.0740273
66.6394 -0.0754544
66.7007 -0.0675874
66.762 -0.0788861
66.8233 0.49974
66.8846 0.636757
66.9459 0.59258
67.0072 0.575544
67.0685 0.0127318
67.1298 0.180185
67.1911 0.40082
67.2524 -0.0805713
67.3136 0.142261
67.3749 0.209942
67.4362 0.278722
67.4975 0.0621426
67.5588 -0.231463
67.6201 0.0937193
67.6814 0.237709
67.7427 0.0702975
67.804 -0.0960154
67.8653 0.103354
67.9266 0.460072
67.9879 0.06268
68.0492 -0.12528
68.1105 -0.364224
68.1718 0.0638117
68.2331 0.0762795
68.2944 0.0377626
68.3557 -0.260072
68.417 -0.035975
68.4783 0.293388
68.5396 0.259266
68.6009 -0.346674
68.6622 0.012026
68.7235 -0.0969249
68.7848 0.21189
68.8461 -0.103197
68.9074 -0.239005
68.9687 -0.0893109
69.03 0.34794
69.0913 0.16129
69.1526 0.0278214
69.2139 0.312118
69.2752 -0.235819
69.3365 0.102759
69.3978 0.36431
69.4591 0.904076
69.5204 0.164227
69.5817 -0.0797308
69.643 -0.16634
69.7043 -0.229741
69.7656 -0.0856762
69.8269 -0.122804
69.8882 0.101583
69.9495 0.691653
70.0108 0.996363
70.0721 0.729255
70.1334 1.19241
70.1947 1.57854
70.2559 2.69494
70.3172 2.84889
70.3785 4.17582
70.4398 5.52989
70.5011 8.42151
70.5624 15.6892
70.6237 52.8278
70.685 69.8374
70.7463 25.9625
70.8076 22.0628
70.8689 37.5131
70.9302 15.8551
70.9915 5.47427
71.0528 1.81328
71.1141 0.887771
71.1754 0.0154401
71.2367 0.576499
71.298 0.331365
71.3593 -0.407461
71.4206 0.130852
71.4819 0.0713063
71.5432 0.585776
71.6045 0.58051
71.6658 0.159677
71.7271 -0.364224
71.7884 0.0126512
71.8497 -0.234375
71.911 0.324978
71.9723 -0.20832
72.0336 0.275106
72.0949 0.264839
72.1562 0.620253
72.2175 0.40385
72.2788 0.214588
72.3401 -0.233993
72.4014 0.506309
72.4627 0.122851
72.524 -0.0251328
72.5853 0.348815
72.6466 -0.213638
72.7079 0.110425
72.7692 0.193471
72.8305 0.351872
72.8918 0.563454
72.9531 -0.187406
73.0144 0.521166
73.0757 0.0589615
73.137 0.353064
73.1982 0.205557
73.2595 0.127309
73.3208 0.435802
73.3821 0.22456
73.4434 0.248792
73.5047 0.169956
73.566 0.248469
73.6273 0.119748
73.6886 -0.294334
73.7499 0.152059
73.8112 -0.0775336
73.8725 0.423139
73.9338 0.351995
73.9951 -0.186802
74.0564 -0.0994989
74.1177 -0.219431
74.179 0.291888
74.2403 0.153265
74.3016 0.432406
74.3629 -0.17277
74.4242 0.368986
74.4855 -0.364201
74.5468 0.174334
74.6081 -0.0672821
74.6694 0.186992
74.7307 -0.000343102
74.792 0.151962
74.8533 -0.267551
74.9146 0.277577
74.9759 -0.00953055
75.0372 -0.113247
75.0985 -0.0335737
75.1598 0.0471987
75.2211 0.389486
75.2824 0.0557895
75.3437 -0.0684754
75.405 0.470072
75.4663 0.0124509
75.5276 0.0507198
75.5889 0.0119624
75.6502 0.182637
75.7115 -0.0362146
75.7728 -0.253968
75.8341 -0.106038
75.8954 -0.113261
75.9567 0.479574
76.018 0.526633
76.0793 1.12167
76.1405 2.05634
76.2018 5.25773
76.2631 5.28315
76.3244 2.86174
76.3857 2.55081
76.447 3.43889
76.5083 2.19265
76.5696 0.530852
76.6309 0.198273
76.6922 -0.211333
76.7535 0.187452
76.8148 -0.0116232
76.8761 0.259151
76.9374 0.16644
76.9987 -0.211631
77.06 -0.224019
77.1213 -0.107193
77.1826 0.0107306
77.2439 -0.182747
77.3052 0.0415416
77.3665 0.214845
77.4278 0.0767475
77.4891 0.27829
77.5504 0.324681
77.6117 0.268005
77.673 0.681177
77.7343 0.444406
77.7956 -0.312099
77.8569 -0.153817
77.9182 -0.0204774
77.9795 0.166044
78.0408 -0.193211
78.1021 0.33405
78.1634 0.0797735
78.2247 0.0581989
78.286 0.76689
78.3473 -0.00769573
78.4086 0.130276
78.4699 -0.147321
78.5312 0.669932
78.5925 0.108074
78.6538 0.172316
78.7151 -0.205052
78.7764 0.31379
78.8377 -0.0516861
78.899 0.0464995
78.9603 0.263617
79.0216 0.273501
79.0828 0.414691
79.1441 0.0882302
79.2054 0.231618
79.2667 0.115688
79.328 0.0529397
79.3893 0.329832
79.4506 0.191156
79.5119 -0.311004
79.5732 0.125434
79.6345 -0.166195
79.6958 -0.456726
79.7571 0.0350918
79.8184 0.345717
79.8797 0.34494
79.941 0.241096
80.0023 -0.0960246
80.0636 0.531495
80.1249 -0.29822
80.1862 0.331497
80.2475 0.0248133
80.3088 0.0838112
80.3701 0.274116
80.4314 -0.211563
80.4927 -0.18478
80.554 0.468102
80.6153 -0.33625
80.6766 0.0063298
80.7379 -0.170825
80.7992 0.270666
80.8605 0.0324451
80.9218 0.107823
80.9831 0.132217
81.0444 -0.0766658
81.1057 -0.0500747
81.167 0.00365666
81.2283 0.136612
81.2896 0.452957
81.3509 -0.148553
81.4122 -0.06083
81.4735 0.418616
81.5348 0.586661
81.5961 0.417263
81.6574 -0.0114528
81.7187 0.238013
81.78 0.35837
81.8413 -0.0149668
81.9026 0.107587
81.9639 0.257281
82.0251 0.303908
82.0864 0.143299
82.1477 0.895248
82.209 1.3358
82.2703 5.03265
82.3316 1.75144
82.3929 0.372363
82.4542 1.12981
82.5155 1.70605
82.5768 0.799028
82.6381 0.153516
82.6994 0.0299367
82.7607 -0.274836
82.822 0.0464904
82.8833 -0.073793
82.9446 -0.010686
83.0059 0.00143629
83.0672 0.327157
83.1285 -0.0751896
83.1898 0.0964789
83.2511 0.00882938
83.3124 -0.233971
83.3737 0.180586
83.435 0.153535
83.4963 0.25779
83.5576 0.415227
83.6189 0.339388
83.6802 0.160481
83.7415 0.477464
83.8028 0.483047
83.8641 0.151186
83.9254 -0.209233
83.9867 -0.2112
84.048 -0.186027
84.1093 0.0485779
84.1706 -0.132385
84.2319 0.338793
84.2932 -0.0743476
84.3545 -0.0436809
84.4158 0.274543
84.4771 0.0209486
84.5384 0.34137
84.5997 0.142056
84.661 0.0480083
84.7223 -0.106271
84.7836 -0.330028
84.8449 0.228563
84.9062 -0.0450799
84.9674 0.593834
85.0287 0.114055
85.09 0.0780831
85.1513 0.173418
85.2126 0.269852
85.2739 0.237176
85.3352 0.439974
85.3965 -0.0852961
85.4578 -0.0886342
85.5191 -0.299207
85.5804 -0.0138892
85.6417 -0.0920561
85.703 0.143376
85.7643 -0.271135
85.8256 -0.111631
85.8869 -0.185403
85.9482 0.101865
86.0095 0.0684486
86.0708 0.348631
86.1321 0.13512
86.1934 0.0529166
86.2547 -0.262563
86.316 0.386597
86.3773 -0.187102
86.4386 0.12195
86.4999 0.352093
86.5612 0.114585
86.6225 -0.225991
86.6838 0.0334898
86.7451 0.163861
86.8064 0.26929
86.8677 0.037275
86.929 0.0928415
86.9903 0.201638
87.0516 -0.235342
87.1129 -0.098306
87.1742 0.22212
87.2355 -0.211563
87.2968 -0.15231
87.3581 -0.0659156
87.4194 0.0736606
87.4807 -0.0981645
87.542 -0.0345159
87.6033 -0.0999769
87.6646 0.122119
87.7259 -0.0973945
87.7872 0.231066
87.8485 0.0918744
87.9097 0.0839903
87.971 0.207413
88.0323 0.0194349
88.0936 0.562061
88.1549 0.311685
88.2162 0.0884489
88.2775 0.178812
88.3388 0.0098565
88.4001 0.0503334
88.4614 0.091909
88.5227 -0.125833
88.584 0.360648
88.6453 -0.271564
88.7066 0.321282
88.7679 -0.204566
88.8292 -0.130356
88.8905 0.179327
88.9518 -0.0828077
89.0131 0.0467813
89.0744 -0.056906
89.1357 -0.211578
89.197 0.233807
89.2583 0.055291
89.3196 -0.17421
89.3809 -0.0119869
89.4422 0.255501
89.5035 -0.0487369
89.5648 0.0389313
89.6261 -0.262927
89.6874 -0.0949362
89.7487 0.230403
89.81 -0.120242
89.8713 0.0510445
89.9326 -0.010945
89.9939 -0.21788