File: XRD/OER Sample 1 (Ti TiO2 Sb2S3)_25112020_bg_subtracted.xy
'Id: "Commander Sample ID" Comment: "" Operator: "Lab Manager" Anode: "Cu" Scantype: "Coupled TwoTheta/Theta" TimePerStep: "38.4"
10.0001 -0.610176
10.0614 -0.637882
10.1227 1.54473
10.184 0.603638
10.2453 -0.804912
10.3066 0.235748
10.3679 0.105826
10.4292 -1.09051
10.4905 0.344652
10.5518 -0.119933
10.6131 -0.140516
10.6744 0.0745688
10.7357 -0.28197
10.797 1.52424
10.8583 0.258832
10.9196 -0.0157024
10.9809 -0.0545687
11.0422 -0.248392
11.1035 2.16324
11.1648 1.47722
11.2261 1.6779
11.2874 1.38508
11.3487 1.4321
11.41 1.79291
11.4713 3.19668
11.5325 2.31007
11.5938 2.33622
11.6551 1.92095
11.7164 3.69448
11.7777 4.14117
11.839 2.79229
11.9003 4.30928
11.9616 5.61922
12.0229 7.06067
12.0842 6.91487
12.1455 5.80683
12.2068 5.66361
12.2681 5.05294
12.3294 6.57898
12.3907 6.96048
12.452 8.9839
12.5133 6.92007
12.5746 8.42524
12.6359 9.12442
12.6972 10.8145
12.7585 9.95372
12.8198 10.813
12.8811 12.8715
12.9424 9.80113
13.0037 12.1747
13.065 11.685
13.1263 12.681
13.1876 15.8397
13.2489 14.5206
13.3102 15.26
13.3715 16.0268
13.4328 15.3365
13.4941 14.6996
13.5554 16.7463
13.6167 15.7214
13.678 16.5467
13.7393 15.1338
13.8006 17.5763
13.8619 17.0513
13.9232 18.4026
13.9845 17.099
14.0458 15.2237
14.1071 17.6987
14.1684 18.4302
14.2297 18.5901
14.291 16.4075
14.3523 18.7575
14.4135 17.6452
14.4748 17.9405
14.5361 16.7787
14.5974 17.5453
14.6587 17.0111
14.72 15.9834
14.7813 17.5611
14.8426 16.0673
14.9039 16.0851
14.9652 16.9376
15.0265 16.0205
15.0878 16.3548
15.1491 16.3518
15.2104 16.1677
15.2717 15.8548
15.333 14.3453
15.3943 14.4255
15.4556 16.7727
15.5169 15.6577
15.5782 13.8929
15.6395 16.7127
15.7008 19.9505
15.7621 19.2312
15.8234 17.1331
15.8847 15.1143
15.946 13.4094
16.0073 12.6432
16.0686 12.6075
16.1299 11.7137
16.1912 11.4202
16.2525 11.206
16.3138 12.9203
16.3751 9.19314
16.4364 9.86832
16.4977 9.1125
16.559 9.60797
16.6203 10.7558
16.6816 9.7955
16.7429 9.43548
16.8042 10.4309
16.8655 7.54744
16.9268 7.99859
16.9881 9.23228
17.0494 8.40997
17.1107 7.22437
17.172 7.70673
17.2333 7.64351
17.2946 9.01388
17.3558 8.35428
17.4171 8.55536
17.4784 8.13273
17.5397 9.48222
17.601 12.7341
17.6623 11.5861
17.7236 7.8093
17.7849 6.84626
17.8462 5.88451
17.9075 5.2626
17.9688 5.65761
18.0301 5.22057
18.0914 6.08691
18.1527 5.00142
18.214 6.36514
18.2753 5.09995
18.3366 3.70584
18.3979 3.87552
18.4592 6.93712
18.5205 2.83855
18.5818 2.77774
18.6431 4.12447
18.7044 6.12353
18.7657 3.80097
18.827 2.70367
18.8883 1.73786
18.9496 3.89835
19.0109 2.96117
19.0722 2.41591
19.1335 2.67923
19.1948 0.990725
19.2561 1.0483
19.3174 2.90405
19.3787 1.37567
19.44 2.89546
19.5013 1.49987
19.5626 1.48579
19.6239 1.7855
19.6852 2.45109
19.7465 1.73776
19.8078 1.78094
19.8691 1.74728
19.9304 1.42845
19.9917 1.84009
20.053 2.6176
20.1143 -0.431717
20.1756 1.02546
20.2369 1.49436
20.2981 2.5635
20.3594 1.73289
20.4207 1.4765
20.482 0.0495211
20.5433 1.04571
20.6046 1.34007
20.6659 1.37531
20.7272 0.135792
20.7885 1.68403
20.8498 0.108561
20.9111 0.435427
20.9724 0.763586
21.0337 -0.246441
21.095 -0.31434
21.1563 -0.667405
21.2176 1.24645
21.2789 0.453261
21.3402 0.546784
21.4015 -0.894858
21.4628 0.268959
21.5241 -0.571138
21.5854 0.813278
21.6467 0.740655
21.708 -0.216093
21.7693 0.677412
21.8306 -0.406958
21.8919 0.515175
21.9532 0.00630809
22.0145 0.20186
22.0758 -0.747129
22.1371 -0.236491
22.1984 -0.271435
22.2597 -0.174878
22.321 1.43339
22.3823 2.31378
22.4436 1.91943
22.5049 0.927408
22.5662 0.483556
22.6275 0.0930801
22.6888 0.0424391
22.7501 0.826425
22.8114 0.231495
22.8727 -0.231933
22.934 0.27712
22.9953 -0.484752
23.0566 -0.464081
23.1179 -0.311908
23.1792 1.03947
23.2404 0.621317
23.3017 -0.264298
23.363 0.439922
23.4243 0.181894
23.4856 0.836617
23.5469 0.164508
23.6082 -0.506308
23.6695 1.23904
23.7308 0.641932
23.7921 0.540909
23.8534 -0.261947
23.9147 0.316699
23.976 0.427888
24.0373 0.332037
24.0986 0.315604
24.1599 0.0400469
24.2212 0.312658
24.2825 -0.345901
24.3438 0.0410172
24.4051 1.02819
24.4664 -0.353142
24.5277 0.506406
24.589 -0.0910867
24.6503 1.21376
24.7116 0.488641
24.7729 -0.183097
24.8342 0.266249
24.8955 1.05543
24.9568 5.36153
25.0181 4.43455
25.0794 3.5349
25.1407 2.16779
25.202 1.55719
25.2633 1.05205
25.3246 0.157573
25.3859 0.253974
25.4472 -0.0129156
25.5085 -0.512887
25.5698 -0.126148
25.6311 -0.0245745
25.6924 -0.57275
25.7537 -0.423396
25.815 -0.0123329
25.8763 0.530232
25.9376 0.657423
25.9989 0.108824
26.0602 0.368809
26.1215 -0.151162
26.1827 -0.20109
26.244 0.4534
26.3053 -0.271025
26.3666 0.151676
26.4279 0.249242
26.4892 -0.148503
26.5505 1.01754
26.6118 -0.835948
26.6731 0.593103
26.7344 -1.10155
26.7957 1.1573
26.857 0.341476
26.9183 0.672776
26.9796 0.0678695
27.0409 0.0892561
27.1022 0.398394
27.1635 0.266117
27.2248 -0.203409
27.2861 0.0314835
27.3474 0.137461
27.4087 0.739522
27.47 1.03038
27.5313 0.385025
27.5926 0.5743
27.6539 0.973201
27.7152 0.0192283
27.7765 -0.386576
27.8378 0.380787
27.8991 -0.491181
27.9604 1.50273
28.0217 0.39897
28.083 0.806922
28.1443 0.77346
28.2056 0.532957
28.2669 0.345831
28.3282 -0.699378
28.3895 0.418165
28.4508 0.990127
28.5121 0.756089
28.5734 0.783762
28.6347 2.32314
28.696 1.23361
28.7573 0.483913
28.8186 0.933424
28.8799 1.07173
28.9412 1.4457
29.0025 -0.522783
29.0638 1.23823
29.125 1.20366
29.1863 0.727678
29.2476 0.61757
29.3089 1.08167
29.3702 1.05228
29.4315 1.15438
29.4928 0.867155
29.5541 0.997888
29.6154 0.661164
29.6767 1.23719
29.738 -0.112571
29.7993 1.32542
29.8606 1.38449
29.9219 0.325066
29.9832 0.595059
30.0445 0.0330122
30.1058 0.513925
30.1671 0.240922
30.2284 0.385879
30.2897 1.15713
30.351 0.393214
30.4123 1.42747
30.4736 0.952597
30.5349 0.557145
30.5962 -0.800556
30.6575 -0.0215473
30.7188 0.159796
30.7801 1.12368
30.8414 0.396154
30.9027 0.242836
30.964 0.0387267
31.0253 0.252577
31.0866 -0.287487
31.1479 -0.0189667
31.2092 -0.608528
31.2705 -0.754088
31.3318 0.247478
31.3931 0.0784621
31.4544 0.301365
31.5157 0.603685
31.577 -0.368743
31.6383 -0.350294
31.6996 0.00798878
31.7609 -0.439727
31.8222 0.0773928
31.8835 -0.315653
31.9448 1.14155
32.0061 0.282343
32.0673 0.0754681
32.1286 0.364678
32.1899 0.655181
32.2512 0.295935
32.3125 -0.218267
32.3738 1.30007
32.4351 1.72596
32.4964 2.41355
32.5577 0.185771
32.619 0.745742
32.6803 0.0309648
32.7416 0.281022
32.8029 -0.120065
32.8642 0.456005
32.9255 0.981285
32.9868 0.882858
33.0481 -0.308026
33.1094 0.351341
33.1707 0.126585
33.232 -0.201044
33.2933 0.149702
33.3546 0.319451
33.4159 0.021742
33.4772 0.220118
33.5385 0.211454
33.5998 0.881166
33.6611 0.145922
33.7224 0.635928
33.7837 0.658478
33.845 -0.12497
33.9063 1.046
33.9676 0.134928
34.0289 -0.332141
34.0902 0.269791
34.1515 0.612599
34.2128 -0.449549
34.2741 1.00091
34.3354 0.603711
34.3967 -0.599491
34.458 -0.00452382
34.5193 -0.189514
34.5806 0.0434556
34.6419 -0.112907
34.7032 0.148153
34.7645 0.358154
34.8258 0.100697
34.8871 -0.259633
34.9484 -1.08742
35.0096 0.32567
35.0709 1.11505
35.1322 1.77552
35.1935 1.05707
35.2548 -0.311123
35.3161 0.952182
35.3774 -0.0228032
35.4387 0.123296
35.5 -0.0157691
35.5613 1.53917
35.6226 2.31415
35.6839 2.15292
35.7452 1.18569
35.8065 1.02705
35.8678 0.0103261
35.9291 0.218854
35.9904 -0.144242
36.0517 1.0825
36.113 -0.122017
36.1743 0.268004
36.2356 -0.252141
36.2969 -0.198076
36.3582 0.0135316
36.4195 -0.112109
36.4808 0.258335
36.5421 -0.0470109
36.6034 0.742686
36.6647 -0.263199
36.726 0.0863762
36.7873 0.359119
36.8486 0.0602386
36.9099 0.439734
36.9712 -0.48156
37.0325 -0.0707648
37.0938 0.862157
37.1551 0.0776215
37.2164 0.492296
37.2777 0.179097
37.339 0.544274
37.4003 0.806578
37.4616 0.5233
37.5229 0.0329812
37.5842 -0.117502
37.6455 0.013557
37.7068 -0.0394864
37.7681 0.16918
37.8294 0.274973
37.8907 1.31956
37.9519 1.11544
38.0132 0.834485
38.0745 1.38816
38.1358 3.03688
38.1971 3.54105
38.2584 6.39027
38.3197 9.13662
38.381 25.0093
38.4423 62.8363
38.5036 30.7688
38.5649 17.4787
38.6262 2.39295
38.6875 1.05851
38.7488 0.480579
38.8101 0.659145
38.8714 1.07338
38.9327 0.785781
38.994 0.0828092
39.0553 0.266547
39.1166 0.0438638
39.1779 -0.524207
39.2392 -0.205567
39.3005 0.114365
39.3618 0.643924
39.4231 0.497693
39.4844 0.144421
39.5457 0.417443
39.607 0.926133
39.6683 0.863199
39.7296 1.42656
39.7909 0.58496
39.8522 -0.541803
39.9135 1.14523
39.9748 1.55751
40.0361 2.20546
40.0974 3.37553
40.1587 15.3542
40.22 16.3185
40.2813 12.9352
40.3426 4.78752
40.4039 0.885937
40.4652 0.78773
40.5265 1.10748
40.5878 1.16811
40.6491 0.969618
40.7104 0.433875
40.7717 0.211925
40.833 0.147519
40.8942 0.266697
40.9555 -0.394082
41.0168 -0.151647
41.0781 -0.168335
41.1394 0.936061
41.2007 0.505292
41.262 0.59665
41.3233 0.507009
41.3846 0.236369
41.4459 0.253481
41.5072 1.4698
41.5685 0.473875
41.6298 0.182367
41.6911 0.256734
41.7524 0.514686
41.8137 0.565598
41.875 0.539679
41.9363 0.0463019
41.9976 0.0660016
42.0589 -0.0873556
42.1202 0.463705
42.1815 0.521268
42.2428 0.00720639
42.3041 0.45798
42.3654 0.259005
42.4267 0.608198
42.488 -0.0308992
42.5493 0.346922
42.6106 0.673952
42.6719 0.846026
42.7332 0.316268
42.7945 0.595095
42.8558 0.276256
42.9171 0.245169
42.9784 1.04871
43.0397 0.968124
43.101 0.289874
43.1623 1.67021
43.2236 1.69767
43.2849 0.867051
43.3462 1.13147
43.4075 0.824273
43.4688 -0.184759
43.5301 -0.515415
43.5914 1.13439
43.6527 0.285485
43.714 0.427458
43.7753 0.154058
43.8365 0.428825
43.8978 0.91322
43.9591 0.799948
44.0204 0.0629705
44.0817 0.264786
44.143 -0.328949
44.2043 0.583883
44.2656 0.508425
44.3269 1.13739
44.3882 0.804097
44.4495 0.159601
44.5108 1.00077
44.5721 0.567198
44.6334 0.707832
44.6947 0.276842
44.756 0.732562
44.8173 0.0697835
44.8786 0.449965
44.9399 0.0762308
45.0012 -0.0357935
45.0625 -0.120483
45.1238 -0.0997126
45.1851 -0.129733
45.2464 0.388416
45.3077 0.0745235
45.369 0.412966
45.4303 0.127702
45.4916 -0.260436
45.5529 -0.282697
45.6142 -0.147415
45.6755 -0.141049
45.7368 -0.202833
45.7981 0.274869
45.8594 0.128865
45.9207 0.53103
45.982 0.0490702
46.0433 0.818404
46.1046 0.521322
46.1659 0.303659
46.2272 0.0311359
46.2885 -0.248233
46.3498 -0.161724
46.4111 -0.17809
46.4724 -0.167121
46.5337 0.0795165
46.595 0.249322
46.6563 0.524587
46.7176 0.306354
46.7788 0.453997
46.8401 1.43627
46.9014 0.779204
46.9627 -0.215107
47.024 0.771042
47.0853 0.326192
47.1466 0.507635
47.2079 0.273705
47.2692 0.327526
47.3305 0.38264
47.3918 -0.185952
47.4531 -0.154293
47.5144 0.555742
47.5757 0.537904
47.637 -0.207808
47.6983 0.0894396
47.7596 0.708855
47.8209 0.513439
47.8822 0.449524
47.9435 0.334818
48.0048 0.950573
48.0661 0.135329
48.1274 0.206794
48.1887 -0.111072
48.25 0.166623
48.3113 0.938058
48.3726 0.252453
48.4339 0.66189
48.4952 0.187204
48.5565 -0.208064
48.6178 -0.0165581
48.6791 -0.038832
48.7404 -0.111896
48.8017 0.180916
48.863 0.188563
48.9243 0.275628
48.9856 -0.313097
49.0469 0.453638
49.1082 -0.210626
49.1695 0.246195
49.2308 0.183476
49.2921 -0.22109
49.3534 -0.321059
49.4147 0.491724
49.476 0.186008
49.5373 0.324293
49.5986 0.28158
49.6599 0.344327
49.7211 0.77295
49.7824 -0.0471338
49.8437 0.305951
49.905 0.634286
49.9663 -0.494418
50.0276 0.253171
50.0889 0.116636
50.1502 -0.205386
50.2115 0.063867
50.2728 0.256288
50.3341 0.267711
50.3954 0.384593
50.4567 -0.0180645
50.518 0.283696
50.5793 0.508624
50.6406 0.161929
50.7019 -0.28764
50.7632 -0.480061
50.8245 -0.124313
50.8858 -0.366231
50.9471 -0.0599815
51.0084 0.325687
51.0697 0.530356
51.131 0.475902
51.1923 -0.150175
51.2536 -0.202043
51.3149 -0.148451
51.3762 0.505392
51.4375 -0.0113464
51.4988 -0.0320002
51.5601 -0.285736
51.6214 0.451405
51.6827 -0.372661
51.744 -0.13314
51.8053 0.0708051
51.8666 -0.140624
51.9279 0.196116
51.9892 -0.403352
52.0505 0.437219
52.1118 0.393666
52.1731 -0.0913026
52.2344 -0.288519
52.2957 0.453057
52.357 0.232384
52.4183 0.481755
52.4796 0.00325238
52.5409 0.151043
52.6022 -0.116541
52.6634 0.815086
52.7247 1.35738
52.786 1.64055
52.8473 2.6021
52.9086 5.28369
52.9699 18.4874
53.0312 35.8591
53.0925 9.40393
53.1538 23.7313
53.2151 5.76833
53.2764 1.60872
53.3377 0.367072
53.399 0.532966
53.4603 0.283486
53.5216 0.530091
53.5829 0.231114
53.6442 0.0636382
53.7055 -0.232753
53.7668 0.0450663
53.8281 0.0116784
53.8894 -0.130339
53.9507 0.446591
54.012 0.269606
54.0733 0.0939145
54.1346 0.388266
54.1959 0.735993
54.2572 0.928764
54.3185 0.497828
54.3798 1.44839
54.4411 0.447127
54.5024 0.697153
54.5637 0.219306
54.625 0.367753
54.6863 0.257075
54.7476 0.356024
54.8089 0.0916827
54.8702 0.401551
54.9315 0.00958772
54.9928 -0.250874
55.0541 -0.14546
55.1154 -0.273127
55.1767 0.546799
55.238 -0.194482
55.2993 -0.283428
55.3606 -0.0585809
55.4219 0.349851
55.4832 0.368951
55.5445 -0.00128101
55.6057 0.489155
55.667 -0.477449
55.7283 0.27599
55.7896 0.796347
55.8509 0.0679974
55.9122 0.252399
55.9735 0.54226
56.0348 0.052165
56.0961 0.605029
56.1574 -0.403313
56.2187 0.442921
56.28 0.300864
56.3413 0.524685
56.4026 0.645631
56.4639 0.481413
56.5252 0.0580706
56.5865 0.287063
56.6478 0.829849
56.7091 0.722886
56.7704 0.408883
56.8317 0.721173
56.893 0.097256
56.9543 0.386091
57.0156 0.207468
57.0769 -0.230278
57.1382 0.374936
57.1995 0.564776
57.2608 -0.103465
57.3221 0.105292
57.3834 -0.527279
57.4447 0.169568
57.506 0.0343756
57.5673 0.0306842
57.6286 0.392869
57.6899 0.157389
57.7512 0.157577
57.8125 -0.1274
57.8738 0.0316236
57.9351 0.400274
57.9964 -0.167282
58.0577 0.0477045
58.119 -0.0485157
58.1803 0.637807
58.2416 0.0754233
58.3029 0.243499
58.3642 0.172158
58.4255 0.463525
58.4868 0.0530601
58.548 0.190764
58.6093 0.303718
58.6706 0.209633
58.7319 -0.0914925
58.7932 0.572217
58.8545 0.664302
58.9158 0.731639
58.9771 -0.0663453
59.0384 0.3204
59.0997 0.395939
59.161 0.238396
59.2223 0.420688
59.2836 0.161564
59.3449 -0.226475
59.4062 0.0899047
59.4675 0.89021
59.5288 0.565938
59.5901 0.347126
59.6514 -0.0787262
59.7127 0.304006
59.774 0.19324
59.8353 0.161892
59.8966 -0.206705
59.9579 0.207241
60.0192 0.440189
60.0805 0.440055
60.1418 0.389131
60.2031 0.0269996
60.2644 -0.307797
60.3257 -0.0423419
60.387 0.406698
60.4483 0.336197
60.5096 0.0846983
60.5709 0.329284
60.6322 0.132455
60.6935 -0.175428
60.7548 0.178709
60.8161 0.273721
60.8774 -0.0466394
60.9387 0.441585
61 -0.136607
61.0613 0.45837
61.1226 -0.481818
61.1839 -0.170714
61.2452 0.141684
61.3065 0.351208
61.3678 -0.141099
61.429 -0.267531
61.4903 -0.132252
61.5516 -0.125889
61.6129 -0.0940331
61.6742 -0.116652
61.7355 0.408898
61.7968 -0.15801
61.8581 0.370126
61.9194 -0.0119039
61.9807 0.362568
62.042 0.451874
62.1033 0.177891
62.1646 -0.0166748
62.2259 0.597344
62.2872 -0.245677
62.3485 0.601131
62.4098 0.407565
62.4711 0.241333
62.5324 0.805562
62.5937 0.251292
62.655 0.24519
62.7163 0.318506
62.7776 0.236865
62.8389 0.495059
62.9002 2.10871
62.9615 6.90074
63.0228 2.70969
63.0841 2.11368
63.1454 3.15959
63.2067 0.56096
63.268 0.0729977
63.3293 0.185286
63.3906 0.16866
63.4519 0.20541
63.5132 0.0351194
63.5745 0.256672
63.6358 0.349271
63.6971 -0.155794
63.7584 -0.2429
63.8197 0.170724
63.881 0.0387673
63.9423 0.0643533
64.0036 -0.0650176
64.0649 -0.11497
64.1262 0.279078
64.1875 0.309837
64.2488 0.289805
64.3101 0.0627328
64.3713 -0.0143532
64.4326 0.14045
64.4939 0.19238
64.5552 0.453937
64.6165 0.117828
64.6778 -0.190946
64.7391 -0.0895153
64.8004 0.686415
64.8617 0.0313467
64.923 0.471321
64.9843 0.105298
65.0456 -0.0250579
65.1069 -0.0499538
65.1682 0.707693
65.2295 0.346842
65.2908 -0.0127162
65.3521 0.358185
65.4134 0.131422
65.4747 -0.172174
65.536 -0.0408699
65.5973 -0.147199
65.6586 -0.122026
65.7199 0.00860657
65.7812 0.140532
65.8425 -0.142916
65.9038 0.538471
65.9651 -0.0288491
66.0264 -0.126126
66.0877 -0.196068
66.149 -0.238676
66.2103 0.865158
66.2716 -0.0349241
66.3329 0.264204
66.3942 0.095875
66.4555 -0.461786
66.5168 0.257888
66.5781 0.197605
66.6394 -0.0176345
66.7007 -0.101373
66.762 0.0765985
66.8233 0.0735713
66.8846 0.358296
66.9459 0.0974379
67.0072 0.150373
67.0685 0.204602
67.1298 -0.156543
67.1911 -0.0736868
67.2524 0.557338
67.3136 0.0698637
67.3749 -0.338192
67.4362 0.210802
67.4975 -0.098285
67.5588 0.0105875
67.6201 -0.0615386
67.6814 0.284295
67.7427 0.00642184
67.804 -0.45245
67.8653 0.105596
67.9266 0.482644
67.9879 0.31411
68.0492 0.589577
68.1105 0.475713
68.1718 -0.235817
68.2331 0.210779
68.2944 0.320127
68.3557 0.0661845
68.417 0.256244
68.4783 0.0569707
68.5396 0.171491
68.6009 0.261263
68.6622 0.0398274
68.7235 0.184269
68.7848 0.0956279
68.8461 -0.0698446
68.9074 0.443059
68.9687 0.436423
69.03 0.326913
69.0913 0.531196
69.1526 -0.122603
69.2139 -0.0199001
69.2752 0.578887
69.3365 0.0852179
69.3978 0.0876332
69.4591 0.0132166
69.5204 0.0510189
69.5817 0.0283896
69.643 0.710178
69.7043 0.533885
69.7656 0.0203438
69.8269 0.21122
69.8882 0.533598
69.9495 0.857269
70.0108 0.635358
70.0721 1.14391
70.1334 1.60167
70.1947 0.862801
70.2559 1.87002
70.3172 3.24312
70.3785 3.88834
70.4398 5.05569
70.5011 7.99516
70.5624 16.2224
70.6237 85.8051
70.685 54.9463
70.7463 16.7972
70.8076 27.738
70.8689 43.4717
70.9302 8.6077
70.9915 2.83356
71.0528 1.20134
71.1141 0.377708
71.1754 0.492866
71.2367 0.0884833
71.298 0.180186
71.3593 -0.22161
71.4206 0.0549703
71.4819 0.306802
71.5432 0.0911771
71.6045 0.371637
71.6658 0.419015
71.7271 0.0249772
71.7884 0.0202609
71.8497 -0.222731
71.911 0.0564028
71.9723 -0.213219
72.0336 0.527729
72.0949 0.983512
72.1562 0.00829653
72.2175 0.453418
72.2788 0.111959
72.3401 0.0322098
72.4014 0.52667
72.4627 0.0849238
72.524 0.529887
72.5853 0.14281
72.6466 -0.242974
72.7079 0.440244
72.7692 0.369546
72.8305 0.0918087
72.8918 0.0757806
72.9531 0.165212
73.0144 0.255937
73.0757 0.321913
73.137 -0.235817
73.1982 -0.211243
73.2595 -0.341626
73.3208 0.258451
73.3821 0.000445885
73.4434 -0.0739743
73.5047 0.295607
73.566 -0.29706
73.6273 0.231357
73.6886 0.214193
73.7499 -0.29647
73.8112 -0.232924
73.8725 -0.318451
73.9338 0.0139818
73.9951 0.0612493
74.0564 0.187935
74.1177 0.472163
74.179 0.132685
74.2403 0.26325
74.3016 0.447191
74.3629 0.345967
74.4242 -0.144589
74.4855 -0.243226
74.5468 0.0760957
74.6081 -0.280373
74.6694 -0.062631
74.7307 0.703279
74.792 0.116315
74.8533 0.0775188
74.9146 -0.0641506
74.9759 0.316306
75.0372 0.203265
75.0985 0.690475
75.1598 -0.00483934
75.2211 0.553297
75.2824 0.617935
75.3437 0.215116
75.405 0.28234
75.4663 0.168565
75.5276 0.550875
75.5889 0.0490617
75.6502 0.199583
75.7115 -0.377769
75.7728 0.374297
75.8341 0.242239
75.8954 0.0593911
75.9567 0.346586
76.018 1.10382
76.0793 1.34152
76.1405 2.75239
76.2018 8.48746
76.2631 4.0155
76.3244 1.55004
76.3857 1.97649
76.447 4.2532
76.5083 1.42703
76.5696 0.112575
76.6309 0.309828
76.6922 0.326082
76.7535 -0.203246
76.8148 -0.236489
76.8761 0.252394
76.9374 -0.220971
76.9987 0.314282
77.06 0.277911
77.1213 0.373042
77.1826 0.625716
77.2439 0.2026
77.3052 0.30161
77.3665 0.636288
77.4278 0.529551
77.4891 0.450149
77.5504 0.710581
77.6117 0.347307
77.673 0.137373
77.7343 0.389079
77.7956 -0.113131
77.8569 0.297411
77.9182 -0.0720042
77.9795 0.549457
78.0408 0.130545
78.1021 -0.0787411
78.1634 -0.0784006
78.2247 -0.102809
78.286 -0.125923
78.3473 0.268921
78.4086 0.0921427
78.4699 0.0729071
78.5312 0.0289229
78.5925 0.0903985
78.6538 0.439625
78.7151 0.425562
78.7764 -0.0299161
78.8377 -0.119518
78.899 -0.051577
78.9603 0.38224
79.0216 -0.250357
79.0828 0.0344711
79.1441 -0.00259104
79.2054 0.0397649
79.2667 0.187581
79.328 -0.134143
79.3893 0.400636
79.4506 0.207541
79.5119 0.276157
79.5732 0.11169
79.6345 -0.0254418
79.6958 0.0991361
79.7571 -0.00936791
79.8184 0.0917545
79.8797 0.402503
79.941 -0.405246
80.0023 0.142464
80.0636 -0.219991
80.1249 0.148013
80.1862 0.230852
80.2475 -0.0235567
80.3088 0.139994
80.3701 0.148588
80.4314 0.262641
80.4927 -0.455346
80.554 0.24204
80.6153 0.0292597
80.6766 -0.025977
80.7379 0.414871
80.7992 -0.288821
80.8605 -0.418304
80.9218 -0.468368
80.9831 -0.0122826
81.0444 0.393013
81.1057 0.0964758
81.167 -0.0685595
81.2283 0.236448
81.2896 -0.160376
81.3509 0.147218
81.4122 -0.377228
81.4735 -0.158266
81.5348 -0.0161365
81.5961 -0.0550052
81.6574 0.167836
81.7187 0.131553
81.78 -0.0596861
81.8413 0.0107843
81.9026 0.0825478
81.9639 0.416021
82.0251 0.282037
82.0864 -0.137112
82.1477 0.825241
82.209 1.55451
82.2703 4.02987
82.3316 0.907557
82.3929 0.520915
82.4542 0.395983
82.5155 2.09526
82.5768 0.853124
82.6381 0.107071
82.6994 -0.221022
82.7607 -0.287405
82.822 -0.11812
82.8833 -0.468375
82.9446 -0.103815
83.0059 -0.310878
83.0672 0.368768
83.1285 -0.148209
83.1898 0.143399
83.2511 0.149842
83.3124 -0.0247143
83.3737 -0.224019
83.435 0.344078
83.4963 0.47076
83.5576 0.0256509
83.6189 0.388793
83.6802 -0.184273
83.7415 0.285622
83.8028 -0.102565
83.8641 0.161582
83.9254 -0.224019
83.9867 0.277608
84.048 0.33782
84.1093 -0.121508
84.1706 -0.21496
84.2319 0.317881
84.2932 0.253057
84.3545 -0.0188077
84.4158 0.517913
84.4771 -0.0117821
84.5384 0.153343
84.5997 0.196398
84.661 0.553246
84.7223 -0.260487
84.7836 -0.395844
84.8449 -0.00907503
84.9062 0.144612
84.9674 -0.143116
85.0287 0.117325
85.09 -0.480317
85.1513 0.121251
85.2126 0.0730706
85.2739 0.182433
85.3352 0.293089
85.3965 -0.141837
85.4578 0.231821
85.5191 0.320315
85.5804 0.149685
85.6417 -0.0196525
85.703 -0.109572
85.7643 0.114303
85.8256 0.120566
85.8869 0.185106
85.9482 0.120731
86.0095 0.213899
86.0708 0.230235
86.1321 0.247865
86.1934 -0.0717546
86.2547 0.0265859
86.316 0.152261
86.3773 -0.0332705
86.4386 0.251241
86.4999 0.198504
86.5612 0.0639391
86.6225 0.0508843
86.6838 0.403706
86.7451 0.783862
86.8064 0.0715615
86.8677 -0.535279
86.929 -0.0210353
86.9903 0.31221
87.0516 0.334249
87.1129 0.175288
87.1742 -0.294879
87.2355 -0.0345857
87.2968 -0.0594582
87.3581 0.255504
87.4194 -0.0792821
87.4807 -0.0498132
87.542 -0.228195
87.6033 0.0634659
87.6646 0.351424
87.7259 0.065261
87.7872 0.431433
87.8485 0.225981
87.9097 -0.134428
87.971 0.00124759
88.0323 0.450717
88.0936 0.380645
88.1549 -0.130841
88.2162 0.166257
88.2775 0.0740235
88.3388 -0.329417
88.4001 -0.0284394
88.4614 -0.273044
88.5227 0.201567
88.584 0.312887
88.6453 0.26925
88.7066 0.12274
88.7679 -0.126644
88.8292 0.041932
88.8905 -0.309032
88.9518 -0.00766188
89.0131 -0.19979
89.0744 -0.208333
89.1357 0.258894
89.197 0.206581
89.2583 -0.0527727
89.3196 0.444375
89.3809 0.161566
89.4422 0.0102591
89.5035 -0.21788
89.5648 -0.211523
89.6261 0.264877
89.6874 -0.273054
89.7487 -0.148693
89.81 0.159253
89.8713 -0.104425
89.9326 0.362357
89.9939 -0.249783